时间,pitch,roll,yaw,gyroX_bias,gyroY_bias,gyroZ_bias,
 17:48:57.538,-1.83444,-1.14699,0.0183625,0,0,0
 17:48:57.539,-1.83281,-1.14699,0.0182674,0,0,0
 17:48:57.542,-1.83227,-1.1477,0.0181623,0,0,0
 17:48:57.543,-1.83172,-1.14709,0.0180204,0,0,0
 17:48:57.543,-1.83057,-1.14652,0.017905,0,0,0
 17:48:57.543,-1.82944,-1.14596,0.0178434,0,0,0
 17:48:57.545,-1.82835,-1.14591,0.0178674,0,0,0
 17:48:57.546,-1.82778,-1.14576,0.0177977,0,0,0
 17:48:57.546,-1.82673,-1.14529,0.0176448,0,0,0
 17:48:57.547,-1.82563,-1.14534,0.0175627,0,0,0
 17:48:57.547,-1.82454,-1.14535,0.0175469,0,0,0
 17:48:57.548,-1.82291,-1.14535,0.0174261,0,0,0
 17:48:57.548,-1.82187,-1.14535,0.0172672,0,0,0
 17:48:57.549,-1.82082,-1.14476,0.0171691,0,0,0
 17:48:57.549,-1.82035,-1.14365,0.0171053,0,0,0
 17:48:57.550,-1.81935,-1.14316,0.0170223,0,0,0
 17:48:57.550,-1.81844,-1.14324,0.016933,0,0,0
 17:48:57.551,-1.81747,-1.1439,0.0167812,0,0,0
 17:48:57.551,-1.81591,-1.14454,0.0165776,0,0,0
 17:48:57.552,-1.8144,-1.1457,0.0164475,0,0,0
 17:48:57.552,-1.81346,-1.14625,0.0164045,0,0,0
 17:48:57.553,-1.81248,-1.14734,0.0163515,0,0,0
 17:48:57.553,-1.81211,-1.1484,0.0161933,0,0,0
 17:48:57.554,-1.81181,-1.14834,0.0160277,0,0,0
 17:48:57.554,-1.81148,-1.14712,0.0158666,0,0,0
 17:48:57.555,-1.81061,-1.1459,0.0157079,0,0,0
 17:48:57.555,-1.81027,-1.14471,0.0156023,0,0,0
 17:48:57.556,-1.8099,-1.14414,0.0155407,0,0,0
 17:48:57.556,-1.80895,-1.14414,0.0154582,0,0,0
 17:48:57.557,-1.80803,-1.14412,0.0153511,0,0,0
 17:48:57.557,-1.80657,-1.1447,0.015211,0,0,0
 17:48:57.558,-1.80514,-1.14589,0.0150646,0,0,0
 17:48:57.558,-1.80434,-1.1465,0.0149024,0,0,0
 17:48:57.559,-1.80412,-1.14649,0.014828,0,0,0
 17:48:57.559,-1.80387,-1.14644,0.0148456,0,0,0
 17:48:57.560,-1.80303,-1.14581,0.0148317,0,0,0
 17:48:57.560,-1.80225,-1.14582,0.0146915,0,0,0
 17:48:57.561,-1.80149,-1.14527,0.0145993,0,0,0
 17:48:57.561,-1.80071,-1.14529,0.014591,0,0,0
 17:48:57.562,-1.79991,-1.14531,0.0145688,0,0,0
 17:48:57.562,-1.79907,-1.14585,0.0144977,0,0,0
 17:48:57.563,-1.79829,-1.14637,0.0144286,0,0,0
 17:48:57.563,-1.79756,-1.14695,0.0142945,0,0,0
 17:48:57.564,-1.79682,-1.14761,0.0141591,0,0,0
 17:48:57.564,-1.79599,-1.14827,0.014087,0,0,0
 17:48:57.565,-1.79519,-1.14831,0.0140237,0,0,0
 17:48:57.565,-1.79444,-1.14766,0.0138914,0,0,0
 17:48:57.566,-1.79373,-1.14699,0.0138525,0,0,0
 17:48:57.566,-1.79299,-1.1458,0.0138345,0,0,0
 17:48:57.567,-1.79161,-1.14463,0.0137224,0,0,0
 17:48:57.567,-1.7908,-1.14349,0.0134912,0,0,0
 17:48:57.568,-1.79005,-1.14236,0.0133159,0,0,0
 17:48:57.568,-1.78995,-1.14176,0.0133592,0,0,0
 17:48:57.569,-1.7899,-1.14184,0.0134348,0,0,0
 17:48:57.569,-1.78928,-1.14197,0.0133117,0,0,0
 17:48:57.570,-1.7892,-1.14205,0.0131365,0,0,0
 17:48:57.570,-1.78848,-1.14146,0.0130215,0,0,0
 17:48:57.571,-1.78837,-1.14092,0.0130265,0,0,0
 17:48:57.571,-1.78766,-1.14046,0.012991,0,0,0
 17:48:57.572,-1.78692,-1.14002,0.0128884,0,0,0
 17:48:57.572,-1.78684,-1.13953,0.0127614,0,0,0
 17:48:57.573,-1.78683,-1.1396,0.0127606,0,0,0
 17:48:57.573,-1.78685,-1.1397,0.0127733,0,0,0
 17:48:57.574,-1.78621,-1.14032,0.0126694,0,0,0
 17:48:57.575,-1.78557,-1.14099,0.0125929,0,0,0
 17:48:57.575,-1.78436,-1.14226,0.0126394,0,0,0
 17:48:57.575,-1.78313,-1.1435,0.0126846,0,0,0
 17:48:57.576,-1.78251,-1.14347,0.0125757,0,0,0
 17:48:57.576,-1.78188,-1.14395,0.0124979,0,0,0
 17:48:57.577,-1.78126,-1.14387,0.0124551,0,0,0
 17:48:57.577,-1.78121,-1.14328,0.0123679,0,0,0
 17:48:57.578,-1.78118,-1.14274,0.0122564,0,0,0
 17:48:57.578,-1.78117,-1.14221,0.0121336,0,0,0
 17:48:57.579,-1.78058,-1.14163,0.0120508,0,0,0
 17:48:57.579,-1.77939,-1.14102,0.0119551,0,0,0
 17:48:57.580,-1.77878,-1.13988,0.0118422,0,0,0
 17:48:57.581,-1.77764,-1.13934,0.0117755,0,0,0
 17:48:57.581,-1.7771,-1.13881,0.011723,0,0,0
 17:48:57.581,-1.77539,-1.13884,0.0117012,0,0,0
 17:48:57.582,-1.77426,-1.13887,0.0116402,0,0,0
 17:48:57.582,-1.77313,-1.13834,0.0115358,0,0,0
 17:48:57.583,-1.77264,-1.13843,0.0115162,0,0,0
 17:48:57.583,-1.77211,-1.13794,0.011531,0,0,0
 17:48:57.584,-1.77163,-1.13799,0.0115507,0,0,0
 17:48:57.584,-1.77114,-1.13743,0.0114202,0,0,0
 17:48:57.585,-1.77062,-1.13692,0.0113034,0,0,0
 17:48:57.585,-1.77004,-1.13702,0.0112556,0,0,0
 17:48:57.586,-1.7695,-1.13714,0.0112614,0,0,0
 17:48:57.586,-1.76902,-1.13774,0.0112736,0,0,0
 17:48:57.587,-1.76861,-1.1383,0.0111812,0,0,0
 17:48:57.587,-1.76757,-1.13887,0.0110208,0,0,0
 17:48:57.588,-1.76707,-1.13895,0.0108945,0,0,0
 17:48:57.588,-1.76654,-1.13906,0.0108593,0,0,0
 17:48:57.589,-1.76661,-1.13856,0.0107943,0,0,0
 17:48:57.589,-1.76617,-1.13862,0.0107884,0,0,0
 17:48:57.590,-1.76635,-1.13812,0.0107792,0,0,0
 17:48:57.590,-1.76591,-1.13762,0.0107297,0,0,0
 17:48:57.591,-1.76544,-1.13767,0.0106713,0,0,0
 17:48:57.591,-1.76551,-1.13769,0.0106262,0,0,0
 17:48:57.592,-1.76503,-1.13828,0.0106126,0,0,0
 17:48:57.592,-1.76457,-1.13774,0.010551,0,0,0
 17:48:57.593,-1.76467,-1.13778,0.0104686,0,0,0
 17:48:57.594,-1.76418,-1.13843,0.0104036,0,0,0
 17:48:57.594,-1.76375,-1.1391,0.0103667,0,0,0
 17:48:57.594,-1.76339,-1.13915,0.0103667,0,0,0
 17:48:57.595,-1.76303,-1.13974,0.0103182,0,0,0
 17:48:57.595,-1.76325,-1.1398,0.0102265,0,0,0
 17:48:57.596,-1.76349,-1.13986,0.0101361,0,0,0
 17:48:57.597,-1.76312,-1.13993,0.0100326,0,0,0
 17:48:57.597,-1.76265,-1.13998,0.00994014,0,0,0
 17:48:57.597,-1.76218,-1.14004,0.00988739,0,0,0
 17:48:57.598,-1.76173,-1.13952,0.00980519,0,0,0
 17:48:57.598,-1.76129,-1.13899,0.00971095,0,0,0
 17:48:57.599,-1.76088,-1.13793,0.00961325,0,0,0
 17:48:57.599,-1.76112,-1.13746,0.00953563,0,0,0
 17:48:57.600,-1.76142,-1.13695,0.00949937,0,0,0
 17:48:57.601,-1.76104,-1.13637,0.00952689,0,0,0
 17:48:57.601,-1.76004,-1.13582,0.00953969,0,0,0
 17:48:57.601,-1.75965,-1.13479,0.00948253,0,0,0
 17:48:57.602,-1.75925,-1.13435,0.00944383,0,0,0
 17:48:57.602,-1.75893,-1.13394,0.00936766,0,0,0
 17:48:57.603,-1.7586,-1.13346,0.00929164,0,0,0
 17:48:57.604,-1.75763,-1.1336,0.00925835,0,0,0
 17:48:57.604,-1.75725,-1.13379,0.00926393,0,0,0
 17:48:57.604,-1.75694,-1.13454,0.00922324,0,0,0
 17:48:57.605,-1.7566,-1.13524,0.00912995,0,0,0
 17:48:57.605,-1.75621,-1.13594,0.0090752,0,0,0
 17:48:57.606,-1.75582,-1.13549,0.00905106,0,0,0
 17:48:57.607,-1.75547,-1.13501,0.00905466,0,0,0
 17:48:57.607,-1.75516,-1.13516,0.00907657,0,0,0
 17:48:57.607,-1.75542,-1.13532,0.00908465,0,0,0
 17:48:57.608,-1.75449,-1.13546,0.00902588,0,0,0
 17:48:57.608,-1.75419,-1.13558,0.00903473,0,0,0
 17:48:57.609,-1.75391,-1.1351,0.00909216,0,0,0
 17:48:57.610,-1.75423,-1.13521,0.00910165,0,0,0
 17:48:57.610,-1.75391,-1.13478,0.00902587,0,0,0
 17:48:57.610,-1.75295,-1.13435,0.00894842,0,0,0
 17:48:57.611,-1.75261,-1.13449,0.0089423,0,0,0
 17:48:57.611,-1.75234,-1.13403,0.00886817,0,0,0
 17:48:57.612,-1.75147,-1.13357,0.00876788,0,0,0
 17:48:57.613,-1.7506,-1.13316,0.00873373,0,0,0
 17:48:57.613,-1.75032,-1.13221,0.00873487,0,0,0
 17:48:57.614,-1.74947,-1.13127,0.00876235,0,0,0
 17:48:57.614,-1.74919,-1.13144,0.00877185,0,0,0
 17:48:57.614,-1.74834,-1.1316,0.00870228,0,0,0
 17:48:57.615,-1.74809,-1.13124,0.00860275,0,0,0
 17:48:57.615,-1.74722,-1.13147,0.00852086,0,0,0
 17:48:57.616,-1.74636,-1.13165,0.008452,0,0,0
 17:48:57.617,-1.74553,-1.13176,0.00844988,0,0,0
 17:48:57.617,-1.74475,-1.1313,0.00845765,0,0,0
 17:48:57.618,-1.74454,-1.13144,0.0084036,0,0,0
 17:48:57.618,-1.74435,-1.13221,0.00831544,0,0,0
 17:48:57.618,-1.74467,-1.13297,0.00823913,0,0,0
 17:48:57.619,-1.74435,-1.13311,0.00819757,0,0,0
 17:48:57.620,-1.74407,-1.13261,0.00812604,0,0,0
 17:48:57.620,-1.74385,-1.13272,0.00807382,0,0,0
 17:48:57.621,-1.74427,-1.13293,0.00808896,0,0,0
 17:48:57.621,-1.7441,-1.13256,0.00812513,0,0,0
 17:48:57.621,-1.74385,-1.13328,0.008142,0,0,0
 17:48:57.622,-1.74359,-1.13403,0.00805225,0,0,0
 17:48:57.623,-1.74281,-1.13482,0.00799038,0,0,0
 17:48:57.623,-1.7426,-1.13498,0.00797744,0,0,0
 17:48:57.623,-1.74177,-1.1351,0.00787041,0,0,0
 17:48:57.624,-1.74151,-1.13524,0.00779035,0,0,0
 17:48:57.624,-1.74071,-1.13545,0.00778986,0,0,0
 17:48:57.625,-1.74048,-1.13562,0.00773728,0,0,0
 17:48:57.626,-1.74032,-1.13571,0.00767298,0,0,0
 17:48:57.626,-1.74021,-1.13577,0.00762357,0,0,0
 17:48:57.626,-1.74007,-1.1359,0.0076131,0,0,0
 17:48:57.627,-1.73929,-1.13663,0.00760538,0,0,0
 17:48:57.627,-1.73853,-1.13675,0.00755435,0,0,0
 17:48:57.628,-1.73838,-1.13631,0.00747408,0,0,0
 17:48:57.629,-1.73818,-1.13644,0.00751597,0,0,0
 17:48:57.629,-1.73797,-1.13595,0.00752688,0,0,0
 17:48:57.630,-1.73781,-1.13546,0.00751235,0,0,0
 17:48:57.630,-1.73817,-1.13554,0.00750088,0,0,0
 17:48:57.631,-1.7373,-1.135,0.00745695,0,0,0
 17:48:57.631,-1.73704,-1.13393,0.00735753,0,0,0
 17:48:57.631,-1.73684,-1.13351,0.0073034,0,0,0
 17:48:57.632,-1.73612,-1.13313,0.00734345,0,0,0
 17:48:57.633,-1.73599,-1.13328,0.00736162,0,0,0
 17:48:57.633,-1.73579,-1.13283,0.00728148,0,0,0
 17:48:57.633,-1.73558,-1.13301,0.00716609,0,0,0
 17:48:57.634,-1.73598,-1.13316,0.00707935,0,0,0
 17:48:57.634,-1.73637,-1.13383,0.00708936,0,0,0
 17:48:57.635,-1.7373,-1.13388,0.00704191,0,0,0
 17:48:57.636,-1.73775,-1.13459,0.00701359,0,0,0
 17:48:57.636,-1.73817,-1.13474,0.00694153,0,0,0
 17:48:57.637,-1.73851,-1.13486,0.00682962,0,0,0
 17:48:57.637,-1.73831,-1.13493,0.00682423,0,0,0
 17:48:57.637,-1.73866,-1.13553,0.00682256,0,0,0
 17:48:57.638,-1.73841,-1.1356,0.00678976,0,0,0
 17:48:57.639,-1.73879,-1.1357,0.00679804,0,0,0
 17:48:57.639,-1.73927,-1.13582,0.00678218,0,0,0
 17:48:57.640,-1.73917,-1.13534,0.00668286,0,0,0
 17:48:57.640,-1.73902,-1.13549,0.00661263,0,0,0
 17:48:57.640,-1.73889,-1.13621,0.0066397,0,0,0
 17:48:57.641,-1.73872,-1.13687,0.00674508,0,0,0
 17:48:57.642,-1.73787,-1.13754,0.0068082,0,0,0
 17:48:57.642,-1.73763,-1.13821,0.0068449,0,0,0
 17:48:57.643,-1.73741,-1.13822,0.00685131,0,0,0
 17:48:57.643,-1.73722,-1.13826,0.00681926,0,0,0
 17:48:57.643,-1.73701,-1.13838,0.00682582,0,0,0
 17:48:57.644,-1.73687,-1.13798,0.00680324,0,0,0
 17:48:57.645,-1.73729,-1.1375,0.00675439,0,0,0
 17:48:57.645,-1.73653,-1.13695,0.00673187,0,0,0
 17:48:57.646,-1.73629,-1.13641,0.00670774,0,0,0
 17:48:57.646,-1.73604,-1.1359,0.00673634,0,0,0
 17:48:57.647,-1.73528,-1.1354,0.00679175,0,0,0
 17:48:57.647,-1.73456,-1.13547,0.00682581,0,0,0
 17:48:57.647,-1.73449,-1.13556,0.00676849,0,0,0
 17:48:57.648,-1.73388,-1.13629,0.00675591,0,0,0
 17:48:57.649,-1.73443,-1.13709,0.00673009,0,0,0
 17:48:57.649,-1.73376,-1.13786,0.00668923,0,0,0
 17:48:57.650,-1.73305,-1.13856,0.00670036,0,0,0
 17:48:57.650,-1.73289,-1.13867,0.00664102,0,0,0
 17:48:57.650,-1.73213,-1.13815,0.00649744,0,0,0
 17:48:57.651,-1.73193,-1.13759,0.006539,0,0,0
 17:48:57.652,-1.73178,-1.13704,0.00656806,0,0,0
 17:48:57.652,-1.73166,-1.13656,0.00654529,0,0,0
 17:48:57.653,-1.73152,-1.13609,0.00652206,0,0,0
 17:48:57.653,-1.73192,-1.13554,0.00647164,0,0,0
 17:48:57.653,-1.73173,-1.13444,0.00641753,0,0,0
 17:48:57.654,-1.7316,-1.13396,0.0065142,0,0,0
 17:48:57.655,-1.731,-1.13406,0.00653892,0,0,0
 17:48:57.655,-1.73092,-1.13415,0.0065093,0,0,0
 17:48:57.656,-1.73135,-1.13429,0.00655743,0,0,0
 17:48:57.656,-1.73125,-1.13443,0.00656674,0,0,0
 17:48:57.656,-1.73121,-1.13458,0.00653797,0,0,0
 17:48:57.657,-1.73169,-1.13475,0.00649524,0,0,0
 17:48:57.658,-1.73217,-1.13549,0.00653591,0,0,0
 17:48:57.658,-1.7327,-1.13618,0.00663018,0,0,0
 17:48:57.659,-1.73262,-1.13623,0.00669221,0,0,0
 17:48:57.659,-1.73247,-1.13633,0.00671289,0,0,0
 17:48:57.659,-1.73234,-1.137,0.00673809,0,0,0
 17:48:57.660,-1.73164,-1.13709,0.00674562,0,0,0
 17:48:57.661,-1.7315,-1.13727,0.00673933,0,0,0
 17:48:57.661,-1.73143,-1.13748,0.00670829,0,0,0
 17:48:57.662,-1.73085,-1.13763,0.00667883,0,0,0
 17:48:57.662,-1.73017,-1.13707,0.0066297,0,0,0
 17:48:57.663,-1.7294,-1.13712,0.00660829,0,0,0
 17:48:57.663,-1.72924,-1.13734,0.00665371,0,0,0
 17:48:57.663,-1.72855,-1.13753,0.00671279,0,0,0
 17:48:57.664,-1.72788,-1.13702,0.00675528,0,0,0
 17:48:57.665,-1.72781,-1.1371,0.00688155,0,0,0
 17:48:57.665,-1.72768,-1.13719,0.00686112,0,0,0
 17:48:57.666,-1.72755,-1.13724,0.00677467,0,0,0
 17:48:57.666,-1.72686,-1.13786,0.00671931,0,0,0
 17:48:57.666,-1.72674,-1.13794,0.00663371,0,0,0
 17:48:57.667,-1.72662,-1.1381,0.00661407,0,0,0
 17:48:57.668,-1.7265,-1.1377,0.00656396,0,0,0
 17:48:57.668,-1.7264,-1.13778,0.0065057,0,0,0
 17:48:57.669,-1.72638,-1.1372,0.00648507,0,0,0
 17:48:57.669,-1.72634,-1.1372,0.00657415,0,0,0
 17:48:57.669,-1.72625,-1.13664,0.00659176,0,0,0
 17:48:57.670,-1.72614,-1.13612,0.00658177,0,0,0
 17:48:57.671,-1.72605,-1.1362,0.00660313,0,0,0
 17:48:57.671,-1.72601,-1.13575,0.00656874,0,0,0
 17:48:57.672,-1.72597,-1.13589,0.00656485,0,0,0
 17:48:57.672,-1.7259,-1.13599,0.00657377,0,0,0
 17:48:57.673,-1.72586,-1.13546,0.00652674,0,0,0
 17:48:57.673,-1.72528,-1.13497,0.00640088,0,0,0
 17:48:57.674,-1.72523,-1.1351,0.00635774,0,0,0
 17:48:57.674,-1.72465,-1.1358,0.00639855,0,0,0
 17:48:57.675,-1.72462,-1.13646,0.00642556,0,0,0
 17:48:57.675,-1.72456,-1.13712,0.00646467,0,0,0
 17:48:57.675,-1.72455,-1.13781,0.00653051,0,0,0
 17:48:57.676,-1.72454,-1.13852,0.00651728,0,0,0
 17:48:57.677,-1.72451,-1.13864,0.00643382,0,0,0
 17:48:57.677,-1.72444,-1.13875,0.00645506,0,0,0
 17:48:57.678,-1.72385,-1.13885,0.00650336,0,0,0
 17:48:57.678,-1.72387,-1.13893,0.00647322,0,0,0
 17:48:57.679,-1.72436,-1.1384,0.00638383,0,0,0
 17:48:57.679,-1.72485,-1.13786,0.00634789,0,0,0
 17:48:57.679,-1.72539,-1.13737,0.00633974,0,0,0
 17:48:57.680,-1.72539,-1.13692,0.0062797,0,0,0
 17:48:57.681,-1.72533,-1.13705,0.00626283,0,0,0
 17:48:57.681,-1.72528,-1.13663,0.00628085,0,0,0
 17:48:57.682,-1.7253,-1.13624,0.00628765,0,0,0
 17:48:57.682,-1.72473,-1.13585,0.00634627,0,0,0
 17:48:57.682,-1.72415,-1.13549,0.00640392,0,0,0
 17:48:57.683,-1.7241,-1.13564,0.00637174,0,0,0
 17:48:57.684,-1.72406,-1.13574,0.00630036,0,0,0
 17:48:57.684,-1.72405,-1.13579,0.00629608,0,0,0
 17:48:57.685,-1.72399,-1.13526,0.00635248,0,0,0
 17:48:57.685,-1.72447,-1.13473,0.00645974,0,0,0
 17:48:57.686,-1.72387,-1.13372,0.00640615,0,0,0
 17:48:57.686,-1.72385,-1.13274,0.00624679,0,0,0
 17:48:57.687,-1.72439,-1.13172,0.00616704,0,0,0
 17:48:57.687,-1.72435,-1.13071,0.0061536,0,0,0
 17:48:57.688,-1.72434,-1.12974,0.00619334,0,0,0
 17:48:57.688,-1.72433,-1.12935,0.00628934,0,0,0
 17:48:57.689,-1.72434,-1.12895,0.00625344,0,0,0
 17:48:57.689,-1.7238,-1.12915,0.00615654,0,0,0
 17:48:57.690,-1.72382,-1.12995,0.00610328,0,0,0
 17:48:57.690,-1.72382,-1.13076,0.00612892,0,0,0
 17:48:57.691,-1.72386,-1.13158,0.00612867,0,0,0
 17:48:57.691,-1.72326,-1.13238,0.00615301,0,0,0
 17:48:57.692,-1.72319,-1.13313,0.0062023,0,0,0
 17:48:57.692,-1.72316,-1.13385,0.00623899,0,0,0
 17:48:57.693,-1.72319,-1.1346,0.00622447,0,0,0
 17:48:57.693,-1.72261,-1.1347,0.00609925,0,0,0
 17:48:57.694,-1.7226,-1.13479,0.00593552,0,0,0
 17:48:57.694,-1.72198,-1.13486,0.00591651,0,0,0
 17:48:57.695,-1.72136,-1.13438,0.00591956,0,0,0
 17:48:57.695,-1.72074,-1.13398,0.00582948,0,0,0
 17:48:57.696,-1.7207,-1.13356,0.00576713,0,0,0
 17:48:57.696,-1.72077,-1.13199,0.00577913,0,0,0
 17:48:57.697,-1.7203,-1.13103,0.00583526,0,0,0
 17:48:57.697,-1.72036,-1.13063,0.00589364,0,0,0
 17:48:57.698,-1.72037,-1.13083,0.00588838,0,0,0
 17:48:57.698,-1.72041,-1.13049,0.00581446,0,0,0
 17:48:57.699,-1.72105,-1.13012,0.00576809,0,0,0
 17:48:57.699,-1.72164,-1.12967,0.0057475,0,0,0
 17:48:57.700,-1.72164,-1.12924,0.00576623,0,0,0
 17:48:57.700,-1.7222,-1.12888,0.00579757,0,0,0
 17:48:57.701,-1.72216,-1.1291,0.00581924,0,0,0
 17:48:57.701,-1.72219,-1.12875,0.00575897,0,0,0
 17:48:57.702,-1.72223,-1.12839,0.00571266,0,0,0
 17:48:57.702,-1.72232,-1.12809,0.0056944,0,0,0
 17:48:57.703,-1.723,-1.12843,0.00567997,0,0,0
 17:48:57.703,-1.7236,-1.12933,0.00565493,0,0,0
 17:48:57.704,-1.72359,-1.13018,0.00561613,0,0,0
 17:48:57.704,-1.72298,-1.13102,0.00561628,0,0,0
 17:48:57.705,-1.72294,-1.13182,0.00562963,0,0,0
 17:48:57.705,-1.72235,-1.13259,0.00560413,0,0,0
 17:48:57.706,-1.72231,-1.13277,0.0055214,0,0,0
 17:48:57.706,-1.72232,-1.13352,0.00536473,0,0,0
 17:48:57.707,-1.72233,-1.13426,0.0052616,0,0,0
 17:48:57.707,-1.72167,-1.13498,0.0052756,0,0,0
 17:48:57.708,-1.7216,-1.13507,0.005246,0,0,0
 17:48:57.708,-1.72102,-1.13515,0.00512498,0,0,0
 17:48:57.709,-1.72105,-1.13525,0.00505893,0,0,0
 17:48:57.709,-1.72101,-1.13478,0.00506639,0,0,0
 17:48:57.710,-1.72098,-1.13488,0.00510432,0,0,0
 17:48:57.710,-1.72096,-1.13445,0.00509876,0,0,0
 17:48:57.711,-1.72095,-1.13405,0.00504103,0,0,0
 17:48:57.711,-1.72034,-1.13422,0.00493339,0,0,0
 17:48:57.712,-1.72028,-1.13436,0.00483958,0,0,0
 17:48:57.712,-1.7203,-1.13455,0.00483988,0,0,0
 17:48:57.713,-1.71976,-1.13415,0.00490277,0,0,0
 17:48:57.713,-1.71976,-1.13369,0.00495151,0,0,0
 17:48:57.714,-1.71978,-1.13381,0.00489935,0,0,0
 17:48:57.714,-1.72037,-1.13393,0.00479523,0,0,0
 17:48:57.715,-1.72037,-1.13347,0.00475329,0,0,0
 17:48:57.715,-1.71981,-1.13302,0.00471179,0,0,0
 17:48:57.716,-1.7198,-1.13313,0.00472677,0,0,0
 17:48:57.716,-1.71976,-1.13265,0.00474938,0,0,0
 17:48:57.717,-1.72028,-1.13162,0.00468859,0,0,0
 17:48:57.717,-1.72016,-1.13178,0.00462215,0,0,0
 17:48:57.718,-1.72065,-1.13138,0.00455305,0,0,0
 17:48:57.718,-1.72177,-1.13158,0.00454282,0,0,0
 17:48:57.719,-1.7229,-1.13116,0.0044894,0,0,0
 17:48:57.719,-1.72344,-1.13133,0.00442759,0,0,0
 17:48:57.720,-1.72397,-1.13154,0.00443155,0,0,0
 17:48:57.720,-1.72391,-1.13171,0.0044745,0,0,0
 17:48:57.721,-1.72447,-1.13189,0.00442624,0,0,0
 17:48:57.721,-1.72507,-1.13208,0.00431252,0,0,0
 17:48:57.722,-1.725,-1.13225,0.00422422,0,0,0
 17:48:57.722,-1.72498,-1.13241,0.00424285,0,0,0
 17:48:57.723,-1.72499,-1.13259,0.00431419,0,0,0
 17:48:57.723,-1.72503,-1.13339,0.00435041,0,0,0
 17:48:57.724,-1.72502,-1.13527,0.00443322,0,0,0
 17:48:57.724,-1.72432,-1.13649,0.00444238,0,0,0
 17:48:57.725,-1.72359,-1.13711,0.0043807,0,0,0
 17:48:57.725,-1.72345,-1.13778,0.00435925,0,0,0
 17:48:57.726,-1.72337,-1.13846,0.00437851,0,0,0
 17:48:57.726,-1.72335,-1.13792,0.00429889,0,0,0
 17:48:57.727,-1.7233,-1.1374,0.00420612,0,0,0
 17:48:57.727,-1.72265,-1.13687,0.00413953,0,0,0
 17:48:57.728,-1.72204,-1.13573,0.00407031,0,0,0
 17:48:57.728,-1.72141,-1.13458,0.00413361,0,0,0
 17:48:57.729,-1.72137,-1.13294,0.00420516,0,0,0
 17:48:57.729,-1.72076,-1.13191,0.0043195,0,0,0
 17:48:57.730,-1.72018,-1.13148,0.00433258,0,0,0
 17:48:57.730,-1.71958,-1.13165,0.00428294,0,0,0
 17:48:57.731,-1.71897,-1.13126,0.00424265,0,0,0
 17:48:57.731,-1.71841,-1.13084,0.00419067,0,0,0
 17:48:57.732,-1.71787,-1.13103,0.00415675,0,0,0
 17:48:57.732,-1.71787,-1.13065,0.00417073,0,0,0
 17:48:57.733,-1.71845,-1.13083,0.00422832,0,0,0
 17:48:57.733,-1.71906,-1.13043,0.00421618,0,0,0
 17:48:57.734,-1.71968,-1.13067,0.00414218,0,0,0
 17:48:57.734,-1.71973,-1.13093,0.00408243,0,0,0
 17:48:57.735,-1.71979,-1.13115,0.00406314,0,0,0
 17:48:57.735,-1.7198,-1.13189,0.00409938,0,0,0
 17:48:57.736,-1.71974,-1.132,0.0041299,0,0,0
 17:48:57.736,-1.71971,-1.13207,0.00414783,0,0,0
 17:48:57.737,-1.71974,-1.13328,0.00414897,0,0,0
 17:48:57.737,-1.71984,-1.13343,0.00406357,0,0,0
 17:48:57.738,-1.72051,-1.13422,0.00403485,0,0,0
 17:48:57.738,-1.72056,-1.13499,0.0040581,0,0,0
 17:48:57.739,-1.72053,-1.13564,0.00409259,0,0,0
 17:48:57.739,-1.71995,-1.13628,0.00407468,0,0,0
 17:48:57.740,-1.71994,-1.1364,0.00403927,0,0,0
 17:48:57.740,-1.71933,-1.13652,0.00404253,0,0,0
 17:48:57.741,-1.71871,-1.13713,0.00406297,0,0,0
 17:48:57.741,-1.71872,-1.13716,0.00409355,0,0,0
 17:48:57.742,-1.71882,-1.13728,0.00408642,0,0,0
 17:48:57.742,-1.71886,-1.13679,0.00400847,0,0,0
 17:48:57.743,-1.71947,-1.13567,0.00399256,0,0,0
 17:48:57.743,-1.71894,-1.13514,0.00403389,0,0,0
 17:48:57.744,-1.71895,-1.13468,0.00398156,0,0,0
 17:48:57.745,-1.71893,-1.13427,0.0039417,0,0,0
 17:48:57.745,-1.71838,-1.13383,0.00390349,0,0,0
 17:48:57.745,-1.71838,-1.13338,0.00395768,0,0,0
 17:48:57.746,-1.71779,-1.13296,0.00404999,0,0,0
 17:48:57.746,-1.71721,-1.13252,0.0040889,0,0,0
 17:48:57.747,-1.71726,-1.13209,0.00412852,0,0,0
 17:48:57.748,-1.71737,-1.13167,0.00407718,0,0,0
 17:48:57.748,-1.71744,-1.13182,0.00402972,0,0,0
 17:48:57.748,-1.71746,-1.13192,0.00403419,0,0,0
 17:48:57.749,-1.71746,-1.13201,0.00407732,0,0,0
 17:48:57.749,-1.71748,-1.13211,0.00415941,0,0,0
 17:48:57.750,-1.71752,-1.13223,0.00414947,0,0,0
 17:48:57.750,-1.71753,-1.13185,0.00412176,0,0,0
 17:48:57.751,-1.71757,-1.13142,0.00413394,0,0,0
 17:48:57.751,-1.7182,-1.13093,0.00409422,0,0,0
 17:48:57.752,-1.71882,-1.13162,0.00406281,0,0,0
 17:48:57.752,-1.71889,-1.13179,0.00405442,0,0,0
 17:48:57.753,-1.71889,-1.13191,0.00407091,0,0,0
 17:48:57.753,-1.71835,-1.13262,0.00413121,0,0,0
 17:48:57.754,-1.71785,-1.13339,0.0041784,0,0,0
 17:48:57.754,-1.71735,-1.13357,0.0042083,0,0,0
 17:48:57.755,-1.71683,-1.13428,0.00422823,0,0,0
 17:48:57.755,-1.7163,-1.13496,0.00426067,0,0,0
 17:48:57.756,-1.71579,-1.13508,0.00430211,0,0,0
 17:48:57.760,-1.71583,-1.1352,0.0043555,0,0,0
 17:48:57.760,-1.71591,-1.1359,0.0044263,0,0,0
 17:48:57.760,-1.71601,-1.13605,0.00441396,0,0,0
 17:48:57.760,-1.71611,-1.13621,0.00440239,0,0,0
 17:48:57.760,-1.71562,-1.13632,0.00437722,0,0,0
 17:48:57.760,-1.71511,-1.13582,0.00434801,0,0,0
 17:48:57.760,-1.71512,-1.13533,0.00434381,0,0,0
 17:48:57.760,-1.7151,-1.13485,0.00432552,0,0,0
 17:48:57.760,-1.71511,-1.13441,0.00433422,0,0,0
 17:48:57.761,-1.71518,-1.13336,0.00435423,0,0,0
 17:48:57.761,-1.71524,-1.13288,0.00437765,0,0,0
 17:48:57.762,-1.71527,-1.13192,0.00435644,0,0,0
 17:48:57.762,-1.7148,-1.13042,0.00434665,0,0,0
 17:48:57.763,-1.71434,-1.12945,0.00428874,0,0,0
 17:48:57.764,-1.71441,-1.12841,0.0041906,0,0,0
 17:48:57.764,-1.71442,-1.12799,0.00413532,0,0,0
 17:48:57.764,-1.71387,-1.12768,0.00406672,0,0,0
 17:48:57.765,-1.71396,-1.12741,0.0039995,0,0,0
 17:48:57.765,-1.7141,-1.12769,0.00396448,0,0,0
 17:48:57.766,-1.7148,-1.12796,0.00394249,0,0,0
 17:48:57.766,-1.71544,-1.12816,0.00398542,0,0,0
 17:48:57.767,-1.71549,-1.12832,0.0039622,0,0,0
 17:48:57.767,-1.71555,-1.12848,0.00392595,0,0,0
 17:48:57.768,-1.71561,-1.12923,0.00395974,0,0,0
 17:48:57.768,-1.7157,-1.13001,0.0039144,0,0,0
 17:48:57.769,-1.71633,-1.13079,0.00388216,0,0,0
 17:48:57.769,-1.71757,-1.13157,0.00391659,0,0,0
 17:48:57.770,-1.71826,-1.13234,0.00389958,0,0,0
 17:48:57.771,-1.71892,-1.13246,0.00389103,0,0,0
 17:48:57.771,-1.72009,-1.13256,0.00394683,0,0,0
 17:48:57.771,-1.72064,-1.13274,0.00394907,0,0,0
 17:48:57.772,-1.72119,-1.13355,0.00394194,0,0,0
 17:48:57.772,-1.72124,-1.13436,0.00393675,0,0,0
 17:48:57.773,-1.72186,-1.13448,0.00391438,0,0,0
 17:48:57.773,-1.72249,-1.13462,0.00387943,0,0,0
 17:48:57.774,-1.72248,-1.13542,0.00392607,0,0,0
 17:48:57.774,-1.72186,-1.13614,0.00401145,0,0,0
 17:48:57.775,-1.72127,-1.13621,0.00405364,0,0,0
 17:48:57.775,-1.72068,-1.13572,0.00405193,0,0,0
 17:48:57.776,-1.72004,-1.13582,0.0040137,0,0,0
 17:48:57.776,-1.71942,-1.13536,0.00394563,0,0,0
 17:48:57.776,-1.71886,-1.13494,0.00387916,0,0,0
 17:48:57.776,-1.7183,-1.13455,0.00391883,0,0,0
 17:48:57.777,-1.71834,-1.13415,0.00403866,0,0,0
 17:48:57.777,-1.7184,-1.13316,0.00406241,0,0,0
 17:48:57.778,-1.71843,-1.13213,0.00401962,0,0,0
 17:48:57.779,-1.71783,-1.13165,0.00400631,0,0,0
 17:48:57.779,-1.71782,-1.13124,0.00396689,0,0,0
 17:48:57.779,-1.71727,-1.13091,0.00390159,0,0,0
 17:48:57.780,-1.71731,-1.13109,0.00389386,0,0,0
 17:48:57.780,-1.71736,-1.13181,0.00392988,0,0,0
 17:48:57.781,-1.71743,-1.13254,0.00388704,0,0,0
 17:48:57.781,-1.71748,-1.1327,0.00378747,0,0,0
 17:48:57.782,-1.71754,-1.13342,0.00381141,0,0,0
 17:48:57.782,-1.7176,-1.13357,0.0037783,0,0,0
 17:48:57.783,-1.71823,-1.13366,0.00371954,0,0,0
 17:48:57.783,-1.71885,-1.13378,0.00372676,0,0,0
 17:48:57.784,-1.71893,-1.13391,0.0037749,0,0,0
 17:48:57.784,-1.71845,-1.13402,0.00380986,0,0,0
 17:48:57.785,-1.71845,-1.13407,0.00372338,0,0,0
 17:48:57.785,-1.71845,-1.13412,0.00362423,0,0,0
 17:48:57.786,-1.71848,-1.1342,0.00354024,0,0,0
 17:48:57.786,-1.71797,-1.1349,0.00348814,0,0,0
 17:48:57.787,-1.71749,-1.13567,0.00350204,0,0,0
 17:48:57.787,-1.71755,-1.13583,0.00349782,0,0,0
 17:48:57.788,-1.71754,-1.13647,0.00353576,0,0,0
 17:48:57.789,-1.71752,-1.13712,0.00359892,0,0,0
 17:48:57.789,-1.71685,-1.13723,0.00364279,0,0,0
 17:48:57.789,-1.71616,-1.13732,0.00368512,0,0,0
 17:48:57.790,-1.71612,-1.13674,0.00369921,0,0,0
 17:48:57.790,-1.71554,-1.13557,0.00369708,0,0,0
 17:48:57.791,-1.71564,-1.13456,0.00368396,0,0,0
 17:48:57.792,-1.71579,-1.13425,0.00374207,0,0,0
 17:48:57.792,-1.71589,-1.1338,0.00373345,0,0,0
 17:48:57.792,-1.71601,-1.13328,0.00368586,0,0,0
 17:48:57.793,-1.71667,-1.13278,0.00376986,0,0,0
 17:48:57.793,-1.71614,-1.13232,0.00382601,0,0,0
 17:48:57.794,-1.71611,-1.13183,0.00380136,0,0,0
 17:48:57.795,-1.71613,-1.13139,0.00379067,0,0,0
 17:48:57.795,-1.71618,-1.13104,0.00378062,0,0,0
 17:48:57.796,-1.71624,-1.13186,0.00375332,0,0,0
 17:48:57.796,-1.71627,-1.13202,0.00376069,0,0,0
 17:48:57.796,-1.71633,-1.13211,0.00386141,0,0,0
 17:48:57.797,-1.71583,-1.13222,0.00396164,0,0,0
 17:48:57.797,-1.71533,-1.13239,0.00394246,0,0,0
 17:48:57.798,-1.71537,-1.13259,0.00396156,0,0,0
 17:48:57.799,-1.71483,-1.13271,0.00384873,0,0,0
 17:48:57.799,-1.71432,-1.13281,0.00371132,0,0,0
 17:48:57.800,-1.71441,-1.13292,0.00364081,0,0,0
 17:48:57.800,-1.71455,-1.13249,0.00358122,0,0,0
 17:48:57.800,-1.71524,-1.13264,0.00357798,0,0,0
 17:48:57.801,-1.71589,-1.13276,0.00361309,0,0,0
 17:48:57.802,-1.71652,-1.13283,0.00366108,0,0,0
 17:48:57.802,-1.71657,-1.1329,0.00369556,0,0,0
 17:48:57.802,-1.71603,-1.13357,0.00377304,0,0,0
 17:48:57.803,-1.71615,-1.13374,0.00379501,0,0,0
 17:48:57.803,-1.71679,-1.13395,0.00376291,0,0,0
 17:48:57.804,-1.71676,-1.13467,0.00375891,0,0,0
 17:48:57.805,-1.71616,-1.1348,0.00383023,0,0,0
 17:48:57.805,-1.71673,-1.13493,0.00387503,0,0,0
 17:48:57.806,-1.71681,-1.13561,0.00388681,0,0,0
 17:48:57.806,-1.71747,-1.13568,0.0038417,0,0,0
 17:48:57.806,-1.71749,-1.13519,0.00375251,0,0,0
 17:48:57.807,-1.71811,-1.13475,0.00367767,0,0,0
 17:48:57.808,-1.71874,-1.13437,0.00364342,0,0,0
 17:48:57.808,-1.71875,-1.13344,0.00370986,0,0,0
 17:48:57.809,-1.71872,-1.13301,0.0037657,0,0,0
 17:48:57.809,-1.7187,-1.13204,0.00377781,0,0,0
 17:48:57.809,-1.71924,-1.1317,0.0037934,0,0,0
 17:48:57.810,-1.71805,-1.13129,0.00375634,0,0,0
 17:48:57.811,-1.71751,-1.13139,0.00369852,0,0,0
 17:48:57.811,-1.71706,-1.13155,0.00373524,0,0,0
 17:48:57.812,-1.71664,-1.13178,0.00372007,0,0,0
 17:48:57.812,-1.7162,-1.13198,0.00363755,0,0,0
 17:48:57.812,-1.71624,-1.13211,0.00355334,0,0,0
 17:48:57.813,-1.71569,-1.13223,0.00353416,0,0,0
 17:48:57.813,-1.7157,-1.13232,0.00355436,0,0,0
 17:48:57.814,-1.71572,-1.13243,0.00358751,0,0,0
 17:48:57.815,-1.71577,-1.13198,0.00360377,0,0,0
 17:48:57.815,-1.71588,-1.13151,0.00351634,0,0,0
 17:48:57.815,-1.71599,-1.1311,0.00348177,0,0,0
 17:48:57.816,-1.71607,-1.13138,0.0035559,0,0,0
 17:48:57.816,-1.71555,-1.13109,0.00346672,0,0,0
 17:48:57.817,-1.71504,-1.13183,0.00338617,0,0,0
 17:48:57.818,-1.71457,-1.13192,0.0034213,0,0,0
 17:48:57.818,-1.71407,-1.13206,0.00342933,0,0,0
 17:48:57.818,-1.71356,-1.13224,0.0033974,0,0,0
 17:48:57.819,-1.71368,-1.13303,0.0033838,0,0,0
 17:48:57.819,-1.71382,-1.1338,0.0034371,0,0,0
 17:48:57.820,-1.71397,-1.13452,0.00355645,0,0,0
 17:48:57.821,-1.71412,-1.13524,0.00354331,0,0,0
 17:48:57.821,-1.7142,-1.13541,0.00339202,0,0,0
 17:48:57.822,-1.71425,-1.13552,0.0032942,0,0,0
 17:48:57.822,-1.71372,-1.13499,0.00327149,0,0,0
 17:48:57.822,-1.71379,-1.1345,0.00315695,0,0,0
 17:48:57.823,-1.71385,-1.13347,0.00305233,0,0,0
 17:48:57.824,-1.71389,-1.1325,0.00305331,0,0,0
 17:48:57.824,-1.71396,-1.13207,0.00304571,0,0,0
 17:48:57.825,-1.71405,-1.13159,0.00299907,0,0,0
 17:48:57.825,-1.71408,-1.13113,0.00295181,0,0,0
 17:48:57.825,-1.71412,-1.13072,0.00295734,0,0,0
 17:48:57.826,-1.71415,-1.13031,0.00297586,0,0,0
 17:48:57.827,-1.71357,-1.13045,0.00299738,0,0,0
 17:48:57.827,-1.7136,-1.13003,0.00297565,0,0,0
 17:48:57.828,-1.71306,-1.1296,0.00292865,0,0,0
 17:48:57.828,-1.71317,-1.12919,0.00297567,0,0,0
 17:48:57.828,-1.71328,-1.12877,0.0029438,0,0,0
 17:48:57.829,-1.71336,-1.12898,0.00286216,0,0,0
 17:48:57.829,-1.71401,-1.12863,0.00280309,0,0,0
 17:48:57.830,-1.71351,-1.12884,0.00284117,0,0,0
 17:48:57.831,-1.713,-1.12902,0.00286489,0,0,0
 17:48:57.831,-1.7125,-1.12922,0.00280988,0,0,0
 17:48:57.832,-1.71202,-1.12946,0.00275549,0,0,0
 17:48:57.832,-1.71205,-1.12966,0.00264779,0,0,0
 17:48:57.832,-1.71215,-1.12985,0.00250351,0,0,0
 17:48:57.833,-1.7123,-1.13008,0.00247923,0,0,0
 17:48:57.834,-1.71303,-1.13031,0.00253448,0,0,0
 17:48:57.834,-1.71251,-1.12989,0.00255736,0,0,0
 17:48:57.834,-1.71258,-1.12943,0.00247485,0,0,0
 17:48:57.835,-1.71208,-1.12897,0.00238045,0,0,0
 17:48:57.835,-1.71215,-1.12858,0.00239161,0,0,0
 17:48:57.836,-1.71162,-1.12824,0.00237515,0,0,0
 17:48:57.837,-1.71111,-1.12841,0.00227091,0,0,0
 17:48:57.837,-1.71122,-1.12796,0.0022829,0,0,0
 17:48:57.838,-1.71133,-1.12812,0.00239165,0,0,0
 17:48:57.838,-1.71147,-1.12828,0.00243495,0,0,0
 17:48:57.838,-1.71214,-1.12843,0.0023979,0,0,0
 17:48:57.839,-1.71224,-1.12862,0.00233509,0,0,0
 17:48:57.840,-1.71234,-1.12826,0.0023605,0,0,0
 17:48:57.840,-1.7124,-1.12788,0.00247814,0,0,0
 17:48:57.841,-1.71187,-1.12692,0.00244619,0,0,0
 17:48:57.841,-1.71194,-1.126,0.00230881,0,0,0
 17:48:57.841,-1.71203,-1.12564,0.00225585,0,0,0
 17:48:57.842,-1.71269,-1.12588,0.00231271,0,0,0
 17:48:57.843,-1.71277,-1.12561,0.00235143,0,0,0
 17:48:57.843,-1.71229,-1.12595,0.0024333,0,0,0
 17:48:57.844,-1.71237,-1.12627,0.00252668,0,0,0
 17:48:57.844,-1.71245,-1.12598,0.00245788,0,0,0
 17:48:57.845,-1.71198,-1.12682,0.00241159,0,0,0
 17:48:57.845,-1.71149,-1.12768,0.00245679,0,0,0
 17:48:57.845,-1.71099,-1.12791,0.00247092,0,0,0
 17:48:57.846,-1.71106,-1.12806,0.00244549,0,0,0
 17:48:57.847,-1.71109,-1.12823,0.00241954,0,0,0
 17:48:57.847,-1.7117,-1.12847,0.00241968,0,0,0
 17:48:57.848,-1.7118,-1.12818,0.00241739,0,0,0
 17:48:57.848,-1.71193,-1.12785,0.0023765,0,0,0
 17:48:57.848,-1.71202,-1.12803,0.00239187,0,0,0
 17:48:57.849,-1.71209,-1.1288,0.00241074,0,0,0
 17:48:57.850,-1.71217,-1.12902,0.0023863,0,0,0
 17:48:57.850,-1.71222,-1.12917,0.00233526,0,0,0
 17:48:57.851,-1.7123,-1.12931,0.00236456,0,0,0
 17:48:57.851,-1.71239,-1.12947,0.00241982,0,0,0
 17:48:57.851,-1.71246,-1.12966,0.00249984,0,0,0
 17:48:57.852,-1.71241,-1.12982,0.00256405,0,0,0
 17:48:57.853,-1.71236,-1.12997,0.00262762,0,0,0
 17:48:57.853,-1.71247,-1.13019,0.00256273,0,0,0
 17:48:57.854,-1.71257,-1.13046,0.0025765,0,0,0
 17:48:57.854,-1.71209,-1.13074,0.00259011,0,0,0
 17:48:57.855,-1.71211,-1.13086,0.00261511,0,0,0
 17:48:57.855,-1.71216,-1.13094,0.00262803,0,0,0
 17:48:57.856,-1.71221,-1.13102,0.00264083,0,0,0
 17:48:57.856,-1.71226,-1.1311,0.00265352,0,0,0
 17:48:57.857,-1.71238,-1.1313,0.00272083,0,0,0
 17:48:57.857,-1.71251,-1.13149,0.00278745,0,0,0
 17:48:57.858,-1.71206,-1.13168,0.00285339,0,0,0
 17:48:57.858,-1.71213,-1.1313,0.0028344,0,0,0
 17:48:57.859,-1.7122,-1.13088,0.00277635,0,0,0
 17:48:57.859,-1.71226,-1.13046,0.00271887,0,0,0
 17:48:57.860,-1.71224,-1.13061,0.00274258,0,0,0
 17:48:57.860,-1.71222,-1.13076,0.00276606,0,0,0
 17:48:57.861,-1.7122,-1.13091,0.0027893,0,0,0
 17:48:57.861,-1.71276,-1.13106,0.0028123,0,0,0
 17:48:57.861,-1.71351,-1.13131,0.00283984,0,0,0
 17:48:57.862,-1.71426,-1.13157,0.00286707,0,0,0
 17:48:57.863,-1.715,-1.13181,0.00289401,0,0,0
 17:48:57.863,-1.71573,-1.13206,0.00292066,0,0,0
 17:48:57.864,-1.71645,-1.1323,0.00294702,0,0,0
 17:48:57.864,-1.71659,-1.13254,0.00297309,0,0,0
 17:48:57.864,-1.71665,-1.13268,0.00302388,0,0,0
 17:48:57.865,-1.7167,-1.13282,0.00307416,0,0,0
 17:48:57.866,-1.71675,-1.13295,0.00312393,0,0,0
 17:48:57.866,-1.7168,-1.13309,0.0031732,0,0,0
 17:48:57.867,-1.71684,-1.13322,0.00322199,0,0,0
 17:48:57.867,-1.71689,-1.13335,0.00327028,0,0,0
 17:48:57.867,-1.71694,-1.13348,0.00331808,0,0,0
 17:48:57.868,-1.71698,-1.13361,0.00336541,0,0,0
 17:48:57.869,-1.71703,-1.13374,0.00341227,0,0,0
 17:48:57.869,-1.71707,-1.13386,0.00345865,0,0,0
 17:48:57.870,-1.71712,-1.13399,0.00350457,0,0,0
 17:48:57.870,-1.71716,-1.13411,0.00355003,0,0,0
 17:48:57.871,-1.7172,-1.13423,0.00359503,0,0,0
 17:48:57.871,-1.71724,-1.13435,0.00363958,0,0,0
 17:48:57.872,-1.71728,-1.13447,0.00368369,0,0,0
 17:48:57.872,-1.71732,-1.13459,0.00372735,0,0,0
 17:48:57.873,-1.71736,-1.13471,0.00377057,0,0,0
 17:48:57.873,-1.7174,-1.13482,0.00381336,0,0,0
 17:48:57.874,-1.71744,-1.13494,0.00385573,0,0,0
 17:48:57.874,-1.71748,-1.13505,0.00389766,0,0,0
 17:48:57.875,-1.71751,-1.13516,0.00393918,0,0,0
 17:48:57.875,-1.71755,-1.13527,0.00398028,0,0,0
 17:48:57.876,-1.71758,-1.13538,0.00402097,0,0,0
 17:48:57.876,-1.71762,-1.13549,0.00406125,0,0,0
 17:48:57.877,-1.71765,-1.1356,0.00410112,0,0,0
 17:48:57.877,-1.71769,-1.13571,0.0041406,0,0,0
 17:48:57.877,-1.71772,-1.13581,0.00417968,0,0,0
 17:48:57.878,-1.71775,-1.13592,0.00421837,0,0,0
 17:48:57.879,-1.71778,-1.13602,0.00425667,0,0,0
 17:48:57.879,-1.71781,-1.13612,0.00429459,0,0,0
 17:48:57.880,-1.71784,-1.13622,0.00433212,0,0,0
 17:48:57.880,-1.71787,-1.13632,0.00436928,0,0,0
 17:48:57.881,-1.71788,-1.13703,0.00442235,0,0,0
 17:48:57.881,-1.71789,-1.13773,0.00447488,0,0,0
 17:48:57.882,-1.7179,-1.13834,0.0044617,0,0,0
 17:48:57.882,-1.71793,-1.13842,0.00451069,0,0,0
 17:48:57.883,-1.71797,-1.13849,0.00455918,0,0,0
 17:48:57.883,-1.718,-1.13857,0.0046072,0,0,0
 17:48:57.884,-1.71806,-1.1381,0.0045725,0,0,0
 17:48:57.884,-1.71806,-1.13765,0.00460272,0,0,0
 17:48:57.885,-1.71803,-1.1372,0.0045925,0,0,0
 17:48:57.885,-1.71806,-1.13674,0.00454437,0,0,0
 17:48:57.886,-1.71811,-1.13677,0.00454097,0,0,0
 17:48:57.886,-1.71811,-1.13621,0.00454581,0,0,0
 17:48:57.887,-1.71809,-1.13623,0.00446145,0,0,0
 17:48:57.887,-1.71812,-1.13629,0.00440523,0,0,0
 17:48:57.888,-1.71821,-1.13585,0.00437318,0,0,0
 17:48:57.888,-1.71827,-1.13542,0.00436667,0,0,0
 17:48:57.889,-1.71827,-1.13611,0.00434102,0,0,0
 17:48:57.889,-1.71889,-1.13567,0.00425565,0,0,0
 17:48:57.890,-1.71895,-1.13522,0.00423752,0,0,0
 17:48:57.890,-1.71902,-1.13478,0.00423264,0,0,0
 17:48:57.891,-1.71908,-1.13438,0.00414803,0,0,0
 17:48:57.891,-1.71907,-1.13455,0.00409323,0,0,0
 17:48:57.892,-1.7185,-1.13469,0.00411798,0,0,0
 17:48:57.892,-1.71852,-1.13481,0.00411651,0,0,0
 17:48:57.893,-1.71857,-1.13547,0.00404072,0,0,0
 17:48:57.893,-1.7186,-1.13552,0.00401328,0,0,0
 17:48:57.893,-1.71917,-1.13558,0.00407782,0,0,0
 17:48:57.894,-1.7198,-1.13625,0.00406803,0,0,0
 17:48:57.895,-1.71927,-1.13631,0.00390877,0,0,0
 17:48:57.895,-1.71929,-1.13582,0.00379784,0,0,0
 17:48:57.896,-1.71988,-1.13604,0.00386202,0,0,0
 17:48:57.896,-1.71987,-1.13569,0.0038818,0,0,0
 17:48:57.897,-1.71993,-1.13585,0.00381521,0,0,0
 17:48:57.897,-1.71997,-1.13541,0.0037318,0,0,0
 17:48:57.898,-1.71937,-1.13553,0.00383548,0,0,0
 17:48:57.898,-1.71933,-1.13557,0.00392561,0,0,0
 17:48:57.899,-1.7193,-1.13562,0.00392347,0,0,0
 17:48:57.899,-1.71873,-1.13575,0.0038559,0,0,0
 17:48:57.900,-1.71871,-1.13586,0.00380136,0,0,0
 17:48:57.900,-1.71864,-1.13538,0.00380746,0,0,0
 17:48:57.901,-1.71857,-1.1355,0.0038436,0,0,0
 17:48:57.901,-1.71801,-1.13505,0.00375911,0,0,0
 17:48:57.902,-1.71747,-1.13465,0.00366304,0,0,0
 17:48:57.902,-1.71696,-1.1343,0.00365978,0,0,0
 17:48:57.903,-1.71644,-1.13395,0.0036303,0,0,0
 17:48:57.903,-1.71652,-1.13356,0.00356231,0,0,0
 17:48:57.904,-1.7166,-1.13375,0.00356465,0,0,0
 17:48:57.904,-1.71669,-1.13396,0.00363321,0,0,0
 17:48:57.905,-1.71678,-1.13416,0.0036877,0,0,0
 17:48:57.905,-1.71684,-1.13373,0.00368491,0,0,0
 17:48:57.906,-1.71689,-1.13325,0.00370814,0,0,0
 17:48:57.906,-1.71635,-1.1328,0.00375712,0,0,0
 17:48:57.907,-1.71578,-1.13297,0.00379572,0,0,0
 17:48:57.907,-1.7158,-1.13319,0.00382103,0,0,0
 17:48:57.908,-1.71584,-1.13277,0.00386931,0,0,0
 17:48:57.908,-1.71587,-1.1329,0.00389493,0,0,0
 17:48:57.909,-1.71647,-1.13249,0.00388947,0,0,0
 17:48:57.909,-1.71651,-1.13267,0.00388956,0,0,0
 17:48:57.909,-1.716,-1.13279,0.0039027,0,0,0
 17:48:57.910,-1.71603,-1.13287,0.00396767,0,0,0
 17:48:57.911,-1.71604,-1.133,0.00392608,0,0,0
 17:48:57.911,-1.7161,-1.13371,0.00377045,0,0,0
 17:48:57.912,-1.71611,-1.1338,0.00370211,0,0,0
 17:48:57.912,-1.71612,-1.13391,0.00367365,0,0,0
 17:48:57.913,-1.71675,-1.13403,0.00362051,0,0,0
 17:48:57.913,-1.71685,-1.13476,0.00362582,0,0,0
 17:48:57.914,-1.71626,-1.13433,0.00360661,0,0,0
 17:48:57.914,-1.71558,-1.13388,0.00358541,0,0,0
 17:48:57.915,-1.7155,-1.13399,0.0035951,0,0,0
 17:48:57.915,-1.71541,-1.13409,0.0036046,0,0,0
 17:48:57.916,-1.71482,-1.13416,0.00358937,0,0,0
 17:48:57.916,-1.71488,-1.1348,0.0035409,0,0,0
 17:48:57.917,-1.71492,-1.1349,0.00352753,0,0,0
 17:48:57.917,-1.71495,-1.13561,0.00351773,0,0,0
 17:48:57.918,-1.71495,-1.13629,0.00342767,0,0,0
 17:48:57.918,-1.715,-1.13637,0.00333561,0,0,0
 17:48:57.919,-1.71499,-1.1359,0.00330487,0,0,0
 17:48:57.919,-1.71502,-1.13604,0.00327904,0,0,0
 17:48:57.920,-1.7145,-1.13556,0.0031979,0,0,0
 17:48:57.920,-1.71459,-1.13507,0.00318378,0,0,0
 17:48:57.921,-1.71519,-1.13462,0.0032872,0,0,0
 17:48:57.921,-1.7158,-1.13424,0.00329835,0,0,0
 17:48:57.922,-1.71586,-1.13381,0.0032842,0,0,0
 17:48:57.922,-1.71597,-1.13392,0.00332746,0,0,0
 17:48:57.923,-1.71605,-1.13403,0.0033962,0,0,0
 17:48:57.923,-1.71605,-1.1341,0.00341006,0,0,0
 17:48:57.924,-1.7155,-1.13361,0.00336778,0,0,0
 17:48:57.924,-1.71609,-1.13317,0.00332544,0,0,0
 17:48:57.925,-1.71608,-1.13335,0.00328669,0,0,0
 17:48:57.925,-1.7155,-1.13348,0.00327533,0,0,0
 17:48:57.926,-1.71495,-1.13295,0.00327363,0,0,0
 17:48:57.926,-1.715,-1.13298,0.00325055,0,0,0
 17:48:57.927,-1.71507,-1.13362,0.0032584,0,0,0
 17:48:57.927,-1.71517,-1.13436,0.00324032,0,0,0
 17:48:57.928,-1.7153,-1.1352,0.00323571,0,0,0
 17:48:57.928,-1.71539,-1.13602,0.00325598,0,0,0
 17:48:57.929,-1.71542,-1.13668,0.0032884,0,0,0
 17:48:57.930,-1.71547,-1.1373,0.0033345,0,0,0
 17:48:57.930,-1.71555,-1.13741,0.0033635,0,0,0
 17:48:57.930,-1.71559,-1.13696,0.00328175,0,0,0
 17:48:57.931,-1.71563,-1.13652,0.00318768,0,0,0
 17:48:57.931,-1.71624,-1.13548,0.00311649,0,0,0
 17:48:57.932,-1.71687,-1.1344,0.0031257,0,0,0
 17:48:57.932,-1.71693,-1.13385,0.00311327,0,0,0
 17:48:57.933,-1.71699,-1.13394,0.00309143,0,0,0
 17:48:57.933,-1.71701,-1.13411,0.00312142,0,0,0
 17:48:57.934,-1.71705,-1.13432,0.00321789,0,0,0
 17:48:57.934,-1.71655,-1.13453,0.00322213,0,0,0
 17:48:57.935,-1.7166,-1.13464,0.00317348,0,0,0
 17:48:57.935,-1.71611,-1.13416,0.00317421,0,0,0
 17:48:57.936,-1.71621,-1.13487,0.00326219,0,0,0
 17:48:57.936,-1.71573,-1.13503,0.00322654,0,0,0
 17:48:57.937,-1.71523,-1.13518,0.00312421,0,0,0
 17:48:57.937,-1.71528,-1.13528,0.00312745,0,0,0
 17:48:57.938,-1.71475,-1.1354,0.00314326,0,0,0
 17:48:57.938,-1.71418,-1.13551,0.00313181,0,0,0
 17:48:57.939,-1.71421,-1.13504,0.00310392,0,0,0
 17:48:57.939,-1.71425,-1.13454,0.00307626,0,0,0
 17:48:57.940,-1.71487,-1.13464,0.00311886,0,0,0
 17:48:57.940,-1.71493,-1.13414,0.00310502,0,0,0
 17:48:57.941,-1.71502,-1.13424,0.00304311,0,0,0
 17:48:57.941,-1.71456,-1.13435,0.00307421,0,0,0
 17:48:57.942,-1.71529,-1.13447,0.003093,0,0,0
 17:48:57.942,-1.71543,-1.13402,0.0030017,0,0,0
 17:48:57.943,-1.71551,-1.13413,0.0029269,0,0,0
 17:48:57.943,-1.71559,-1.13425,0.00297109,0,0,0
 17:48:57.944,-1.71566,-1.1344,0.00304098,0,0,0
 17:48:57.944,-1.71577,-1.13402,0.0030283,0,0,0
 17:48:57.945,-1.7158,-1.13418,0.00307018,0,0,0
 17:48:57.946,-1.71521,-1.13373,0.00308006,0,0,0
 17:48:57.946,-1.71522,-1.13386,0.00308154,0,0,0
 17:48:57.946,-1.7153,-1.13401,0.00309804,0,0,0
 17:48:57.947,-1.71544,-1.13364,0.00303241,0,0,0
 17:48:57.947,-1.71496,-1.13384,0.00293128,0,0,0
 17:48:57.948,-1.71442,-1.13397,0.00286889,0,0,0
 17:48:57.949,-1.71442,-1.13407,0.00284564,0,0,0
 17:48:57.949,-1.71448,-1.1342,0.00282358,0,0,0
 17:48:57.949,-1.71393,-1.13372,0.00281042,0,0,0
 17:48:57.950,-1.71343,-1.13383,0.00280226,0,0,0
 17:48:57.950,-1.7135,-1.13339,0.00276417,0,0,0
 17:48:57.951,-1.71359,-1.13358,0.0027568,0,0,0
 17:48:57.951,-1.71423,-1.1338,0.00277498,0,0,0
 17:48:57.952,-1.71428,-1.13393,0.00274025,0,0,0
 17:48:57.952,-1.71373,-1.13344,0.00267486,0,0,0
 17:48:57.953,-1.71378,-1.13295,0.00266355,0,0,0
 17:48:57.953,-1.71382,-1.1331,0.00265586,0,0,0
 17:48:57.954,-1.71325,-1.13325,0.00259498,0,0,0
 17:48:57.954,-1.71327,-1.13281,0.00257032,0,0,0
 17:48:57.955,-1.71396,-1.13297,0.00265742,0,0,0
 17:48:57.955,-1.71412,-1.13312,0.00266651,0,0,0
 17:48:57.956,-1.71424,-1.13272,0.00263132,0,0,0
 17:48:57.956,-1.71425,-1.1329,0.00258424,0,0,0
 17:48:57.957,-1.71422,-1.1325,0.00254536,0,0,0
 17:48:57.957,-1.71424,-1.13213,0.00253462,0,0,0
 17:48:57.958,-1.71375,-1.1323,0.00258236,0,0,0
 17:48:57.959,-1.71385,-1.1324,0.00260432,0,0,0
 17:48:57.959,-1.71334,-1.13248,0.00258579,0,0,0
 17:48:57.959,-1.71336,-1.13259,0.00260553,0,0,0
 17:48:57.960,-1.71338,-1.13329,0.00253644,0,0,0
 17:48:57.960,-1.71343,-1.13338,0.00242528,0,0,0
 17:48:57.961,-1.71348,-1.13343,0.00240702,0,0,0
 17:48:57.962,-1.71354,-1.13352,0.00244121,0,0,0
 17:48:57.962,-1.7136,-1.13421,0.00249286,0,0,0
 17:48:57.962,-1.71304,-1.13436,0.00249901,0,0,0
 17:48:57.963,-1.71249,-1.13392,0.00246173,0,0,0
 17:48:57.963,-1.71255,-1.13337,0.00239947,0,0,0
 17:48:57.964,-1.71263,-1.1328,0.00232526,0,0,0
 17:48:57.965,-1.71329,-1.13293,0.00228139,0,0,0
 17:48:57.965,-1.71329,-1.1331,0.00227519,0,0,0
 17:48:57.965,-1.71334,-1.13264,0.00217368,0,0,0
 17:48:57.966,-1.71339,-1.13274,0.00209024,0,0,0
 17:48:57.966,-1.71342,-1.13286,0.00203362,0,0,0
 17:48:57.967,-1.71343,-1.13244,0.0020119,0,0,0
 17:48:57.967,-1.7129,-1.13207,0.00197836,0,0,0
 17:48:57.968,-1.71244,-1.13225,0.00192403,0,0,0
 17:48:57.968,-1.71256,-1.13242,0.00189641,0,0,0
 17:48:57.969,-1.71268,-1.13259,0.00193448,0,0,0
 17:48:57.969,-1.71335,-1.13275,0.00190632,0,0,0
 17:48:57.970,-1.71406,-1.13285,0.00184053,0,0,0
 17:48:57.970,-1.71422,-1.13299,0.00182825,0,0,0
 17:48:57.971,-1.71435,-1.13313,0.00168305,0,0,0
 17:48:57.972,-1.7144,-1.13322,0.00158991,0,0,0
 17:48:57.972,-1.71441,-1.13331,0.00157489,0,0,0
 17:48:57.972,-1.71443,-1.13346,0.00156038,0,0,0
 17:48:57.973,-1.71447,-1.13421,0.00160252,0,0,0
 17:48:57.973,-1.7151,-1.13439,0.0016799,0,0,0
 17:48:57.974,-1.71572,-1.13455,0.00175659,0,0,0
 17:48:57.975,-1.71578,-1.13467,0.00174099,0,0,0
 17:48:57.975,-1.71587,-1.13485,0.00167325,0,0,0
 17:48:57.975,-1.71594,-1.13501,0.00157987,0,0,0
 17:48:57.976,-1.71605,-1.13456,0.0015363,0,0,0
 17:48:57.976,-1.71613,-1.13405,0.00154564,0,0,0
 17:48:57.977,-1.71619,-1.13409,0.00158444,0,0,0
 17:48:57.978,-1.71627,-1.13419,0.00155704,0,0,0
 17:48:57.978,-1.71576,-1.13437,0.00150291,0,0,0
 17:48:57.979,-1.71583,-1.13398,0.00144479,0,0,0
 17:48:57.979,-1.7159,-1.13297,0.00133118,0,0,0
 17:48:57.979,-1.71535,-1.13253,0.00123477,0,0,0
 17:48:57.980,-1.71536,-1.13151,0.00117387,0,0,0
 17:48:57.981,-1.7148,-1.13164,0.00114869,0,0,0
 17:48:57.981,-1.71485,-1.13115,0.00102774,0,0,0
 17:48:57.982,-1.71491,-1.13124,0.000925344,0,0,0
 17:48:57.982,-1.71498,-1.13141,0.000928768,0,0,0
 17:48:57.982,-1.71447,-1.13161,0.000905741,0,0,0
 17:48:57.983,-1.71456,-1.13175,0.000856959,0,0,0
 17:48:57.983,-1.71522,-1.13243,0.000918696,0,0,0
 17:48:57.984,-1.71536,-1.13317,0.00104723,0,0,0
 17:48:57.985,-1.71544,-1.13394,0.00109492,0,0,0
 17:48:57.985,-1.71548,-1.13412,0.00105783,0,0,0
 17:48:57.985,-1.71488,-1.13489,0.00107596,0,0,0
 17:48:57.986,-1.7149,-1.13509,0.00110384,0,0,0
 17:48:57.986,-1.71494,-1.13526,0.00115859,0,0,0
 17:48:57.987,-1.71499,-1.13478,0.00123575,0,0,0
 17:48:57.988,-1.71564,-1.13428,0.00123462,0,0,0
 17:48:57.988,-1.71577,-1.13438,0.00112002,0,0,0
 17:48:57.988,-1.7159,-1.13389,0.00106719,0,0,0
 17:48:57.989,-1.71539,-1.13397,0.00113604,0,0,0
 17:48:57.989,-1.71485,-1.13407,0.0011904,0,0,0
 17:48:57.990,-1.71432,-1.13368,0.00122741,0,0,0
 17:48:57.991,-1.71434,-1.13327,0.00117136,0,0,0
 17:48:57.991,-1.71437,-1.13341,0.00108109,0,0,0
 17:48:57.992,-1.71441,-1.1335,0.00105714,0,0,0
 17:48:57.992,-1.71445,-1.13361,0.00104632,0,0,0
 17:48:57.992,-1.71396,-1.13376,0.00103654,0,0,0
 17:48:57.993,-1.7141,-1.1333,0.00105015,0,0,0
 17:48:57.994,-1.71421,-1.13283,0.00106325,0,0,0
 17:48:57.994,-1.71431,-1.13245,0.0010892,0,0,0
 17:48:57.995,-1.71438,-1.1321,0.00110099,0,0,0
 17:48:57.995,-1.71446,-1.13229,0.00106473,0,0,0
 17:48:57.995,-1.71395,-1.13187,0.00102428,0,0,0
 17:48:57.996,-1.71399,-1.13145,0.000996342,0,0,0
 17:48:57.997,-1.71403,-1.1311,0.00102177,0,0,0
 17:48:57.997,-1.71467,-1.13071,0.00104745,0,0,0
 17:48:57.998,-1.71533,-1.13027,0.00104765,0,0,0
 17:48:57.998,-1.71602,-1.12991,0.00107465,0,0,0
 17:48:57.998,-1.71609,-1.13012,0.00110468,0,0,0
 17:48:57.999,-1.71605,-1.13026,0.00105222,0,0,0
 17:48:57.999,-1.71599,-1.13036,0.000999946,0,0,0
 17:48:58.000,-1.71543,-1.13046,0.000976324,0,0,0
 17:48:58.001,-1.71545,-1.13057,0.00103236,0,0,0
 17:48:58.001,-1.71557,-1.13074,0.00106425,0,0,0
 17:48:58.001,-1.71569,-1.13095,0.000963477,0,0,0
 17:48:58.002,-1.71569,-1.13169,0.000863393,0,0,0
 17:48:58.002,-1.71626,-1.13244,0.000855766,0,0,0
 17:48:58.003,-1.71627,-1.13261,0.000844748,0,0,0
 17:48:58.004,-1.71573,-1.13333,0.000798804,0,0,0
 17:48:58.004,-1.71518,-1.13349,0.00072309,0,0,0
 17:48:58.005,-1.71578,-1.13314,0.000683426,0,0,0
 17:48:58.005,-1.71637,-1.13333,0.000700394,0,0,0
 17:48:58.005,-1.7164,-1.13347,0.000678335,0,0,0
 17:48:58.006,-1.71702,-1.13362,0.000643962,0,0,0
 17:48:58.007,-1.71704,-1.13319,0.000605106,0,0,0
 17:48:58.007,-1.71647,-1.1322,0.000562129,0,0,0
 17:48:58.008,-1.71593,-1.13177,0.000498042,0,0,0
 17:48:58.008,-1.71597,-1.13191,0.000412895,0,0,0
 17:48:58.008,-1.71547,-1.13201,0.000316084,0,0,0
 17:48:58.009,-1.71497,-1.13206,0.000338453,0,0,0
 17:48:58.010,-1.71504,-1.13154,0.000435917,0,0,0
 17:48:58.010,-1.71506,-1.13161,0.000535428,0,0,0
 17:48:58.011,-1.71508,-1.13168,0.00054223,0,0,0
 17:48:58.011,-1.71508,-1.1312,0.000491703,0,0,0
 17:48:58.012,-1.7151,-1.13191,0.000489893,0,0,0
 17:48:58.012,-1.71518,-1.13206,0.000458915,0,0,0
 17:48:58.013,-1.7153,-1.13163,0.000451498,0,0,0
 17:48:58.013,-1.71476,-1.13115,0.000482107,0,0,0
 17:48:58.014,-1.71474,-1.13072,0.000497551,0,0,0
 17:48:58.014,-1.71471,-1.13147,0.000494538,0,0,0
 17:48:58.014,-1.71465,-1.13158,0.000473721,0,0,0
 17:48:58.015,-1.71466,-1.1317,0.000494102,0,0,0
 17:48:58.015,-1.71477,-1.13245,0.000586605,0,0,0
 17:48:58.016,-1.71432,-1.13324,0.000626703,0,0,0
 17:48:58.017,-1.71444,-1.134,0.000626264,0,0,0
 17:48:58.017,-1.7139,-1.13407,0.000633485,0,0,0
 17:48:58.018,-1.71338,-1.13351,0.000690404,0,0,0
 17:48:58.018,-1.71287,-1.1336,0.000777538,0,0,0
 17:48:58.018,-1.71293,-1.13371,0.000837569,0,0,0
 17:48:58.019,-1.71244,-1.13325,0.000827728,0,0,0
 17:48:58.020,-1.71249,-1.13274,0.000830034,0,0,0
 17:48:58.020,-1.71312,-1.13278,0.000863249,0,0,0
 17:48:58.021,-1.7137,-1.13228,0.000864527,0,0,0
 17:48:58.021,-1.71371,-1.1319,0.000865738,0,0,0
 17:48:58.021,-1.71378,-1.1309,0.000918129,0,0,0
 17:48:58.022,-1.71389,-1.13043,0.000962796,0,0,0
 17:48:58.023,-1.71396,-1.12994,0.000966665,0,0,0
 17:48:58.023,-1.71396,-1.13005,0.000999026,0,0,0
 17:48:58.024,-1.71396,-1.13019,0.00103098,0,0,0
 17:48:58.024,-1.71342,-1.13096,0.00104125,0,0,0
 17:48:58.025,-1.71288,-1.13166,0.00103813,0,0,0
 17:48:58.025,-1.71294,-1.13287,0.00109211,0,0,0
 17:48:58.026,-1.71245,-1.13355,0.00115547,0,0,0
 17:48:58.026,-1.712,-1.13427,0.00116672,0,0,0
 17:48:58.027,-1.71153,-1.13374,0.00106416,0,0,0
 17:48:58.027,-1.71097,-1.13371,0.0010029,0,0,0
 17:48:58.028,-1.71098,-1.13374,0.00100764,0,0,0
 17:48:58.028,-1.71103,-1.13267,0.00101806,0,0,0
 17:48:58.029,-1.71112,-1.13166,0.000923902,0,0,0
 17:48:58.029,-1.71064,-1.13064,0.00080445,0,0,0
 17:48:58.030,-1.71136,-1.12962,0.000700451,0,0,0
 17:48:58.030,-1.71154,-1.13036,0.000728772,0,0,0
 17:48:58.030,-1.71172,-1.13057,0.000792126,0,0,0
 17:48:58.031,-1.71187,-1.13082,0.000828158,0,0,0
 17:48:58.031,-1.71197,-1.13099,0.000797167,0,0,0
 17:48:58.032,-1.71211,-1.13109,0.000740751,0,0,0
 17:48:58.033,-1.71222,-1.13118,0.000723602,0,0,0
 17:48:58.033,-1.71172,-1.13078,0.000741091,0,0,0
 17:48:58.034,-1.71119,-1.13094,0.000708451,0,0,0
 17:48:58.034,-1.71078,-1.1311,0.000586258,0,0,0
 17:48:58.034,-1.711,-1.13129,0.00046655,0,0,0
 17:48:58.035,-1.71114,-1.13091,0.000446935,0,0,0
 17:48:58.036,-1.71126,-1.1311,0.00049605,0,0,0
 17:48:58.036,-1.71138,-1.13071,0.000475791,0,0,0
 17:48:58.037,-1.71088,-1.1309,0.000484616,0,0,0
 17:48:58.037,-1.71096,-1.13105,0.000573147,0,0,0
 17:48:58.037,-1.71111,-1.13115,0.000663443,0,0,0
 17:48:58.038,-1.71127,-1.1318,0.000770243,0,0,0
 17:48:58.039,-1.71081,-1.13192,0.000831356,0,0,0
 17:48:58.039,-1.71145,-1.13204,0.000679598,0,0,0
 17:48:58.040,-1.71211,-1.13216,0.00052997,0,0,0
 17:48:58.040,-1.71225,-1.13288,0.000504873,0,0,0
 17:48:58.041,-1.71234,-1.13303,0.000474621,0,0,0
 17:48:58.041,-1.71183,-1.13319,0.000469896,0,0,0
 17:48:58.042,-1.7113,-1.13279,0.000486849,0,0,0
 17:48:58.042,-1.71081,-1.13237,0.000478339,0,0,0
 17:48:58.043,-1.71092,-1.13193,0.000365025,0,0,0
 17:48:58.043,-1.71043,-1.13201,0.000295705,0,0,0
 17:48:58.044,-1.71114,-1.13215,0.000319724,0,0,0
 17:48:58.044,-1.71189,-1.13175,0.000367087,0,0,0
 17:48:58.045,-1.71204,-1.13077,0.000395807,0,0,0
 17:48:58.045,-1.71152,-1.1304,0.000373585,0,0,0
 17:48:58.046,-1.71159,-1.13005,0.00039103,0,0,0
 17:48:58.046,-1.71166,-1.12967,0.000395285,0,0,0
 17:48:58.047,-1.71114,-1.1287,0.000408401,0,0,0
 17:48:58.047,-1.7112,-1.12771,0.000408481,0,0,0
 17:48:58.049,-1.7113,-1.12788,0.000377941,0,0,0
 17:48:58.049,-1.71141,-1.12803,0.000374051,0,0,0
 17:48:58.049,-1.7121,-1.12879,0.000335155,0,0,0
 17:48:58.050,-1.71162,-1.12956,0.000229261,0,0,0
 17:48:58.050,-1.71174,-1.1303,0.000189799,0,0,0
 17:48:58.050,-1.71191,-1.1316,0.000235077,0,0,0
 17:48:58.050,-1.71148,-1.13178,0.000218865,0,0,0
 17:48:58.051,-1.71156,-1.13081,0.000219113,0,0,0
 17:48:58.052,-1.71161,-1.1304,0.000275062,0,0,0
 17:48:58.052,-1.71169,-1.13,0.000265693,0,0,0
 17:48:58.053,-1.71238,-1.12959,0.000191287,0,0,0
 17:48:58.053,-1.7125,-1.1286,0.00010048,0,0,0
 17:48:58.054,-1.71199,-1.12819,5.21482e-05,0,0,0
 17:48:58.054,-1.71207,-1.12773,4.5319e-06,0,0,0
 17:48:58.055,-1.71218,-1.12727,-2.04756e-06,0,0,0
 17:48:58.055,-1.71175,-1.12693,-3.45006e-05,0,0,0
 17:48:58.056,-1.71183,-1.12661,-4.2319e-05,0,0,0
 17:48:58.056,-1.71186,-1.12626,1.14218e-06,0,0,0
 17:48:58.057,-1.71188,-1.12587,4.80236e-06,0,0,0
 17:48:58.057,-1.71195,-1.12604,5.28188e-05,0,0,0
 17:48:58.058,-1.71262,-1.12681,9.18043e-05,0,0,0
 17:48:58.058,-1.71271,-1.12702,6.12598e-05,0,0,0
 17:48:58.059,-1.71282,-1.12787,8.75714e-05,0,0,0
 17:48:58.059,-1.71293,-1.12817,0.000109467,0,0,0
 17:48:58.060,-1.71247,-1.12844,3.87604e-05,0,0,0
 17:48:58.060,-1.71314,-1.12865,-5.35569e-06,0,0,0
 17:48:58.061,-1.71324,-1.12827,3.95914e-05,0,0,0
 17:48:58.061,-1.71332,-1.12788,0.000122936,0,0,0
 17:48:58.062,-1.71344,-1.12753,0.000179861,0,0,0
 17:48:58.062,-1.71353,-1.12779,0.000160935,0,0,0
 17:48:58.063,-1.7142,-1.12742,0.000164639,0,0,0
 17:48:58.063,-1.71432,-1.12708,0.00020825,0,0,0
 17:48:58.064,-1.71502,-1.12734,0.000163721,0,0,0
 17:48:58.064,-1.71566,-1.12698,6.16493e-05,0,0,0
 17:48:58.065,-1.71572,-1.12658,5.28978e-05,0,0,0
 17:48:58.065,-1.71579,-1.12614,5.71208e-05,0,0,0
 17:48:58.066,-1.71641,-1.12572,8.58439e-06,0,0,0
 17:48:58.066,-1.71589,-1.12656,3.43578e-05,0,0,0
 17:48:58.067,-1.71537,-1.12684,1.61686e-05,0,0,0
 17:48:58.067,-1.71543,-1.12709,3.72566e-05,0,0,0
 17:48:58.068,-1.7155,-1.12735,9.80794e-05,0,0,0
 17:48:58.068,-1.7156,-1.12765,0.000119185,0,0,0
 17:48:58.069,-1.7157,-1.12733,0.000175435,0,0,0
 17:48:58.069,-1.71518,-1.12687,0.000244336,0,0,0
 17:48:58.070,-1.71466,-1.12639,0.000325953,0,0,0
 17:48:58.070,-1.71475,-1.12602,0.000355206,0,0,0
 17:48:58.071,-1.71481,-1.12629,0.000321262,0,0,0
 17:48:58.071,-1.71482,-1.12654,0.000286614,0,0,0
 17:48:58.072,-1.71483,-1.12678,0.000252054,0,0,0
 17:48:58.072,-1.71486,-1.12701,0.000205561,0,0,0
 17:48:58.073,-1.71489,-1.12718,0.000251517,0,0,0
 17:48:58.073,-1.71554,-1.12734,0.000337753,0,0,0
 17:48:58.074,-1.71559,-1.12693,0.00026047,0,0,0
 17:48:58.074,-1.71554,-1.12653,0.000141487,0,0,0
 17:48:58.075,-1.71494,-1.12672,0.000172328,0,0,0
 17:48:58.075,-1.71501,-1.12691,0.000218925,0,0,0
 17:48:58.076,-1.71451,-1.12708,0.000225461,0,0,0
 17:48:58.076,-1.71451,-1.12669,0.00017321,0,0,0
 17:48:58.077,-1.71454,-1.12634,0.000135418,0,0,0
 17:48:58.077,-1.71459,-1.12545,4.22296e-05,0,0,0
 17:48:58.078,-1.71464,-1.1257,-8.31217e-05,0,0,0
 17:48:58.078,-1.71468,-1.12589,-0.000102507,0,0,0
 17:48:58.079,-1.71412,-1.12552,-4.70074e-05,0,0,0
 17:48:58.079,-1.71363,-1.12521,-3.00881e-05,0,0,0
 17:48:58.080,-1.71373,-1.12491,-1.30987e-05,0,0,0
 17:48:58.080,-1.71385,-1.12515,8.58493e-06,0,0,0
 17:48:58.081,-1.71458,-1.12543,3.05543e-05,0,0,0
 17:48:58.081,-1.71465,-1.1263,2.82606e-05,0,0,0
 17:48:58.082,-1.7141,-1.12771,2.54671e-06,0,0,0
 17:48:58.082,-1.71354,-1.12793,-1.79754e-05,0,0,0
 17:48:58.083,-1.71304,-1.12875,6.19694e-06,0,0,0
 17:48:58.083,-1.71255,-1.12895,2.6241e-05,0,0,0
 17:48:58.084,-1.71258,-1.12912,3.18654e-05,0,0,0
 17:48:58.084,-1.71261,-1.12983,4.09359e-05,0,0,0
 17:48:58.085,-1.71265,-1.13053,5.02885e-05,0,0,0
 17:48:58.085,-1.71327,-1.13121,8.59114e-05,0,0,0
 17:48:58.086,-1.71335,-1.13133,0.000118183,0,0,0
 17:48:58.086,-1.71346,-1.13095,0.000160207,0,0,0
 17:48:58.087,-1.71412,-1.13062,0.000122554,0,0,0
 17:48:58.087,-1.71478,-1.13028,-2.05261e-05,0,0,0
 17:48:58.088,-1.71481,-1.1305,-8.12028e-05,0,0,0
 17:48:58.088,-1.7148,-1.13009,-8.08314e-05,0,0,0
 17:48:58.089,-1.71481,-1.12961,-3.99813e-05,0,0,0
 17:48:58.089,-1.71485,-1.12971,5.46034e-06,0,0,0
 17:48:58.090,-1.71488,-1.13046,6.72325e-05,0,0,0
 17:48:58.090,-1.71548,-1.13064,0.000111071,0,0,0
 17:48:58.091,-1.7155,-1.13137,7.96628e-05,0,0,0
 17:48:58.091,-1.71557,-1.13151,4.56504e-05,0,0,0
 17:48:58.092,-1.715,-1.13166,6.25867e-05,0,0,0
 17:48:58.092,-1.71499,-1.13182,6.57325e-05,0,0,0
 17:48:58.093,-1.71501,-1.13253,0.000139194,0,0,0
 17:48:58.093,-1.71502,-1.1326,0.000168595,0,0,0
 17:48:58.094,-1.71449,-1.13325,0.000136877,0,0,0
 17:48:58.094,-1.71454,-1.1339,0.000144593,0,0,0
 17:48:58.095,-1.71459,-1.1346,0.000204431,0,0,0
 17:48:58.095,-1.71466,-1.13419,0.000216712,0,0,0
 17:48:58.096,-1.71472,-1.13436,0.000245684,0,0,0
 17:48:58.096,-1.71472,-1.1339,0.000282115,0,0,0
 17:48:58.097,-1.71476,-1.13285,0.000275812,0,0,0
 17:48:58.097,-1.7148,-1.13238,0.000234433,0,0,0
 17:48:58.098,-1.71434,-1.13193,0.000195327,0,0,0
 17:48:58.098,-1.71391,-1.1315,0.000157125,0,0,0
 17:48:58.099,-1.71401,-1.13165,0.000135235,0,0,0
 17:48:58.100,-1.71405,-1.13184,0.000138265,0,0,0
 17:48:58.100,-1.7147,-1.13261,0.000185265,0,0,0
 17:48:58.100,-1.71478,-1.13275,0.00024112,0,0,0
 17:48:58.101,-1.7148,-1.1329,0.00030815,0,0,0
 17:48:58.101,-1.71423,-1.1331,0.000321753,0,0,0
 17:48:58.102,-1.71423,-1.1332,0.000308459,0,0,0
 17:48:58.102,-1.71424,-1.13327,0.00026983,0,0,0
 17:48:58.103,-1.71425,-1.13287,0.000253526,0,0,0
 17:48:58.103,-1.71426,-1.13363,0.000271637,0,0,0
 17:48:58.104,-1.7143,-1.13375,0.000193904,0,0,0
 17:48:58.104,-1.715,-1.13386,0.000144917,0,0,0
 17:48:58.105,-1.7151,-1.13398,0.000214657,0,0,0
 17:48:58.105,-1.71515,-1.13413,0.000375414,0,0,0
 17:48:58.106,-1.71455,-1.13423,0.000442062,0,0,0
 17:48:58.106,-1.714,-1.13433,0.000377438,0,0,0
 17:48:58.107,-1.71349,-1.13441,0.000340397,0,0,0
 17:48:58.107,-1.71356,-1.13392,0.000365996,0,0,0
 17:48:58.108,-1.71362,-1.13402,0.00036851,0,0,0
 17:48:58.108,-1.71363,-1.13355,0.000352347,0,0,0
 17:48:58.109,-1.71426,-1.13373,0.000380828,0,0,0
 17:48:58.109,-1.71494,-1.13333,0.000380902,0,0,0
 17:48:58.110,-1.71503,-1.1329,0.000354475,0,0,0
 17:48:58.110,-1.71509,-1.13244,0.000353972,0,0,0
 17:48:58.111,-1.71455,-1.13194,0.000352977,0,0,0
 17:48:58.111,-1.71461,-1.13204,0.000382464,0,0,0
 17:48:58.112,-1.71528,-1.13221,0.000386005,0,0,0
 17:48:58.112,-1.71531,-1.13244,0.000454043,0,0,0
 17:48:58.113,-1.71533,-1.13329,0.000498528,0,0,0
 17:48:58.113,-1.71653,-1.1341,0.000465042,0,0,0
 17:48:58.114,-1.71658,-1.13369,0.000370676,0,0,0
 17:48:58.114,-1.7166,-1.13327,0.000354597,0,0,0
 17:48:58.115,-1.71666,-1.13344,0.000423474,0,0,0
 17:48:58.115,-1.71673,-1.13352,0.000453057,0,0,0
 17:48:58.116,-1.71682,-1.13417,0.000434287,0,0,0
 17:48:58.116,-1.71688,-1.1337,0.000432856,0,0,0
 17:48:58.117,-1.71695,-1.13381,0.000382804,0,0,0
 17:48:58.117,-1.71701,-1.13395,0.000213011,0,0,0
 17:48:58.118,-1.7171,-1.13357,0.000119575,0,0,0
 17:48:58.118,-1.71659,-1.13374,0.000228155,0,0,0
 17:48:58.119,-1.71667,-1.13392,0.00036148,0,0,0
 17:48:58.119,-1.71609,-1.13403,0.000413512,0,0,0
 17:48:58.120,-1.71491,-1.13351,0.000434347,0,0,0
 17:48:58.120,-1.71443,-1.13244,0.00037516,0,0,0
 17:48:58.121,-1.71451,-1.13081,0.000153052,0,0,0
 17:48:58.121,-1.714,-1.13043,-8.68985e-06,0,0,0
 17:48:58.122,-1.7141,-1.13008,-9.00284e-05,0,0,0
 17:48:58.122,-1.7142,-1.12915,-0.000148624,0,0,0
 17:48:58.123,-1.71428,-1.12828,-0.000114952,0,0,0
 17:48:58.123,-1.7144,-1.128,-7.62516e-05,0,0,0
 17:48:58.124,-1.71397,-1.12765,-3.71889e-05,0,0,0
 17:48:58.124,-1.71407,-1.12728,1.35155e-05,0,0,0
 17:48:58.125,-1.71355,-1.12805,-7.73797e-06,0,0,0
 17:48:58.125,-1.71365,-1.12823,-4.52471e-05,0,0,0
 17:48:58.126,-1.71379,-1.12901,1.48088e-05,0,0,0
 17:48:58.126,-1.71386,-1.1298,8.59405e-05,0,0,0
 17:48:58.127,-1.71392,-1.13058,3.72961e-05,0,0,0
 17:48:58.127,-1.71456,-1.13079,6.41039e-05,0,0,0
 17:48:58.128,-1.71464,-1.13157,0.00012147,0,0,0
 17:48:58.128,-1.71412,-1.13229,0.000125318,0,0,0
 17:48:58.129,-1.7136,-1.13238,0.000112463,0,0,0
 17:48:58.129,-1.71364,-1.1319,9.48836e-05,0,0,0
 17:48:58.130,-1.71367,-1.13208,9.44893e-05,0,0,0
 17:48:58.130,-1.71373,-1.13285,8.54831e-05,0,0,0
 17:48:58.131,-1.71318,-1.13299,5.89178e-05,0,0,0
 17:48:58.132,-1.71264,-1.13315,5.8182e-05,0,0,0
 17:48:58.132,-1.71268,-1.13331,1.8583e-05,0,0,0
 17:48:58.132,-1.71273,-1.13401,9.97817e-06,0,0,0
 17:48:58.133,-1.71283,-1.13296,3.02204e-05,0,0,0
 17:48:58.133,-1.71293,-1.13194,-1.49858e-05,0,0,0
 17:48:58.134,-1.71241,-1.13086,-0.000140524,0,0,0
 17:48:58.134,-1.7119,-1.12921,-0.000294709,0,0,0
 17:48:58.135,-1.71196,-1.12819,-0.000403977,0,0,0
 17:48:58.135,-1.71148,-1.12778,-0.000389801,0,0,0
 17:48:58.136,-1.71101,-1.12741,-0.000336324,0,0,0
 17:48:58.136,-1.71112,-1.12818,-0.000314556,0,0,0
 17:48:58.137,-1.71118,-1.12893,-0.000293875,0,0,0
 17:48:58.137,-1.71124,-1.12918,-0.000238151,0,0,0
 17:48:58.138,-1.71071,-1.13001,-0.00015338,0,0,0
 17:48:58.138,-1.71078,-1.13022,-0.000138048,0,0,0
 17:48:58.139,-1.71085,-1.12982,-0.000179157,0,0,0
 17:48:58.139,-1.71092,-1.12945,-0.000180753,0,0,0
 17:48:58.140,-1.71097,-1.12965,-0.000152724,0,0,0
 17:48:58.140,-1.71156,-1.12979,-0.000151799,0,0,0
 17:48:58.141,-1.71225,-1.12996,-0.000148438,0,0,0
 17:48:58.142,-1.71296,-1.12959,-0.000187925,0,0,0
 17:48:58.142,-1.71304,-1.13033,-0.000167416,0,0,0
 17:48:58.142,-1.71306,-1.13101,-0.000148337,0,0,0
 17:48:58.143,-1.71305,-1.13107,-0.000239587,0,0,0
 17:48:58.143,-1.71312,-1.1312,-0.000315172,0,0,0
 17:48:58.144,-1.71319,-1.13192,-0.000281008,0,0,0
 17:48:58.144,-1.71382,-1.13262,-0.000221201,0,0,0
 17:48:58.145,-1.71451,-1.13329,-0.000186867,0,0,0
 17:48:58.145,-1.71463,-1.13399,-0.000178841,0,0,0
 17:48:58.146,-1.71531,-1.13414,-0.000135844,0,0,0
 17:48:58.146,-1.71537,-1.13424,-0.000146526,0,0,0
 17:48:58.147,-1.71592,-1.13372,-0.000255556,0,0,0
 17:48:58.148,-1.71585,-1.13321,-0.00024676,0,0,0
 17:48:58.148,-1.71529,-1.13274,-0.000143173,0,0,0
 17:48:58.148,-1.71422,-1.13287,-7.34913e-05,0,0,0
 17:48:58.149,-1.71432,-1.13246,-4.79e-05,0,0,0
 17:48:58.149,-1.71438,-1.13262,-5.8413e-05,0,0,0
 17:48:58.150,-1.71445,-1.13269,-0.000121966,0,0,0
 17:48:58.150,-1.71455,-1.13217,-0.000187866,0,0,0
 17:48:58.151,-1.71462,-1.13171,-0.000161887,0,0,0
 17:48:58.151,-1.71465,-1.13136,-0.00016352,0,0,0
 17:48:58.151,-1.71467,-1.13102,-0.000204834,0,0,0
 17:48:58.151,-1.71419,-1.13064,-0.000243894,0,0,0
 17:48:58.152,-1.71374,-1.1314,-0.000220975,0,0,0
 17:48:58.152,-1.71323,-1.13219,-0.000187049,0,0,0
 17:48:58.153,-1.71329,-1.13244,-0.000145218,0,0,0
 17:48:58.153,-1.71273,-1.13317,-6.05625e-05,0,0,0
 17:48:58.154,-1.7133,-1.13383,-2.88817e-05,0,0,0
 17:48:58.154,-1.71336,-1.13394,2.54833e-05,0,0,0
 17:48:58.155,-1.71403,-1.1341,0.000119943,0,0,0
 17:48:58.155,-1.71413,-1.13365,9.16031e-05,0,0,0
 17:48:58.156,-1.71481,-1.13262,-5.33198e-06,0,0,0
 17:48:58.157,-1.71548,-1.13162,-7.55612e-05,0,0,0
 17:48:58.157,-1.71559,-1.1312,-0.000127605,0,0,0
 17:48:58.157,-1.71568,-1.13132,-0.000109802,0,0,0
 17:48:58.158,-1.71572,-1.13149,-0.00011945,0,0,0
 17:48:58.158,-1.71572,-1.13173,-0.000117357,0,0,0
 17:48:58.159,-1.71631,-1.13253,-9.7866e-05,0,0,0
 17:48:58.160,-1.71637,-1.1333,-0.000156569,0,0,0
 17:48:58.160,-1.71646,-1.13349,-0.000217914,0,0,0
 17:48:58.160,-1.71652,-1.13426,-7.75959e-05,0,0,0
 17:48:58.161,-1.71718,-1.13504,6.17765e-05,0,0,0
 17:48:58.161,-1.71717,-1.13628,0.000123888,0,0,0
 17:48:58.162,-1.71718,-1.13748,0.000159532,0,0,0
 17:48:58.163,-1.71658,-1.13807,0.000189527,0,0,0
 17:48:58.163,-1.71599,-1.13807,0.000123432,0,0,0
 17:48:58.164,-1.71604,-1.13809,5.90456e-05,0,0,0
 17:48:58.164,-1.71612,-1.13697,1.46164e-06,0,0,0
 17:48:58.164,-1.71678,-1.13584,3.67242e-05,0,0,0
 17:48:58.165,-1.71743,-1.13476,4.54475e-05,0,0,0
 17:48:58.165,-1.71744,-1.13314,-5.70568e-05,0,0,0
 17:48:58.166,-1.71739,-1.13207,-0.000155332,0,0,0
 17:48:58.166,-1.7174,-1.12986,-0.000312587,0,0,0
 17:48:58.167,-1.71683,-1.12884,-0.000433754,0,0,0
 17:48:58.167,-1.71631,-1.12841,-0.000496811,0,0,0
 17:48:58.168,-1.71637,-1.12798,-0.000532729,0,0,0
 17:48:58.168,-1.71649,-1.12821,-0.000550105,0,0,0
 17:48:58.169,-1.7166,-1.12843,-0.00048853,0,0,0
 17:48:58.169,-1.71668,-1.12977,-0.000341189,0,0,0
 17:48:58.170,-1.71669,-1.13108,-0.000301686,0,0,0
 17:48:58.170,-1.71614,-1.13179,-0.000318871,0,0,0
 17:48:58.171,-1.71614,-1.13247,-0.000257712,0,0,0
 17:48:58.171,-1.71559,-1.13319,-0.000196654,0,0,0
 17:48:58.172,-1.71564,-1.1333,-0.000191546,0,0,0
 17:48:58.173,-1.71633,-1.13281,-0.000228603,0,0,0
 17:48:58.173,-1.71639,-1.13238,-0.000240637,0,0,0
 17:48:58.173,-1.71701,-1.13316,-0.000139248,0,0,0
 17:48:58.174,-1.71702,-1.13392,-0.000157629,0,0,0
 17:48:58.174,-1.71761,-1.13355,-0.000236577,0,0,0
 17:48:58.175,-1.71702,-1.13373,-0.000232221,0,0,0
 17:48:58.176,-1.71702,-1.13386,-0.000253897,0,0,0
 17:48:58.176,-1.71645,-1.13403,-0.000262407,0,0,0
 17:48:58.176,-1.7165,-1.13416,-0.000282442,0,0,0
 17:48:58.177,-1.71656,-1.13482,-0.000284759,0,0,0
 17:48:58.177,-1.71663,-1.13496,-0.000317589,0,0,0
 17:48:58.178,-1.7173,-1.13456,-0.000340455,0,0,0
 17:48:58.179,-1.71794,-1.13411,-0.000257433,0,0,0
 17:48:58.179,-1.71795,-1.13365,-0.000189709,0,0,0
 17:48:58.180,-1.7174,-1.13318,-0.000135271,0,0,0
 17:48:58.180,-1.71683,-1.13266,-8.16766e-05,0,0,0
 17:48:58.180,-1.71686,-1.13161,-0.000151065,0,0,0
 17:48:58.181,-1.71627,-1.1306,-0.000260127,0,0,0
 17:48:58.181,-1.7163,-1.12961,-0.000393056,0,0,0
 17:48:58.182,-1.71579,-1.12863,-0.000536811,0,0,0
 17:48:58.183,-1.71586,-1.12768,-0.000614208,0,0,0
 17:48:58.183,-1.71591,-1.12731,-0.000622195,0,0,0
 17:48:58.183,-1.71595,-1.12696,-0.000564061,0,0,0
 17:48:58.184,-1.71538,-1.1266,-0.00059919,0,0,0
 17:48:58.184,-1.71535,-1.12624,-0.000687217,0,0,0
 17:48:58.185,-1.71529,-1.12583,-0.0007487,0,0,0
 17:48:58.186,-1.7153,-1.12658,-0.000747583,0,0,0
 17:48:58.186,-1.71538,-1.12733,-0.000678883,0,0,0
 17:48:58.186,-1.71606,-1.12756,-0.000706395,0,0,0
 17:48:58.187,-1.71614,-1.12782,-0.000773362,0,0,0
 17:48:58.187,-1.71626,-1.12866,-0.000756324,0,0,0
 17:48:58.188,-1.71634,-1.12942,-0.00066063,0,0,0
 17:48:58.189,-1.71692,-1.13013,-0.000594,0,0,0
 17:48:58.189,-1.7169,-1.13025,-0.000532437,0,0,0
 17:48:58.190,-1.71748,-1.13041,-0.000458006,0,0,0
 17:48:58.190,-1.71693,-1.1306,-0.000475884,0,0,0
 17:48:58.190,-1.71699,-1.13139,-0.000462181,0,0,0
 17:48:58.191,-1.71647,-1.13157,-0.000466069,0,0,0
 17:48:58.192,-1.71655,-1.13173,-0.000443333,0,0,0
 17:48:58.192,-1.71607,-1.13135,-0.000450393,0,0,0
 17:48:58.193,-1.71617,-1.13154,-0.000427382,0,0,0
 17:48:58.193,-1.71568,-1.13286,-0.000383491,0,0,0
 17:48:58.193,-1.71575,-1.13357,-0.000344595,0,0,0
 17:48:58.194,-1.71524,-1.13423,-0.000292815,0,0,0
 17:48:58.195,-1.71532,-1.13436,-0.000272073,0,0,0
 17:48:58.195,-1.71479,-1.13509,-0.000195813,0,0,0
 17:48:58.196,-1.71485,-1.13464,-0.000193378,0,0,0
 17:48:58.196,-1.71494,-1.13416,-0.000177767,0,0,0
 17:48:58.196,-1.71555,-1.13312,-0.000180285,0,0,0
 17:48:58.197,-1.71563,-1.13267,-0.000164766,0,0,0
 17:48:58.197,-1.71573,-1.13162,-0.000152738,0,0,0
 17:48:58.198,-1.71577,-1.13113,-7.22699e-05,0,0,0
 17:48:58.199,-1.7163,-1.13071,-2.06713e-05,0,0,0
 17:48:58.199,-1.71566,-1.13026,-2.22941e-05,0,0,0
 17:48:58.200,-1.7157,-1.13044,-4.37491e-05,0,0,0
 17:48:58.200,-1.71517,-1.13064,4.0518e-05,0,0,0
 17:48:58.200,-1.71578,-1.1308,8.44796e-05,0,0,0
 17:48:58.201,-1.7158,-1.13098,8.86361e-05,0,0,0
 17:48:58.202,-1.71587,-1.13057,3.73156e-05,0,0,0
 17:48:58.202,-1.71538,-1.13069,-2.16174e-05,0,0,0
 17:48:58.203,-1.71547,-1.13084,-2.79561e-05,0,0,0
 17:48:58.203,-1.71497,-1.13102,-8.25638e-06,0,0,0
 17:48:58.203,-1.71505,-1.13125,1.08206e-05,0,0,0
 17:48:58.204,-1.71452,-1.13206,5.88509e-05,0,0,0
 17:48:58.205,-1.71457,-1.13282,0.000120358,0,0,0
 17:48:58.205,-1.71516,-1.13347,0.000180931,0,0,0
 17:48:58.206,-1.71518,-1.13416,0.000267417,0,0,0
 17:48:58.206,-1.71523,-1.13429,0.000271036,0,0,0
 17:48:58.206,-1.71474,-1.13497,0.000253083,0,0,0
 17:48:58.207,-1.71426,-1.13508,0.00031065,0,0,0
 17:48:58.208,-1.71427,-1.13514,0.00028694,0,0,0
 17:48:58.208,-1.71426,-1.13518,0.000223855,0,0,0
 17:48:58.209,-1.71431,-1.13466,0.000224522,0,0,0
 17:48:58.209,-1.71442,-1.13414,0.000239675,0,0,0
 17:48:58.210,-1.7145,-1.1336,0.000227876,0,0,0
 17:48:58.210,-1.71461,-1.13369,0.000246736,0,0,0
 17:48:58.211,-1.71465,-1.13324,0.000272798,0,0,0
 17:48:58.211,-1.71413,-1.13283,0.000259747,0,0,0
 17:48:58.212,-1.71362,-1.13238,0.00022052,0,0,0
 17:48:58.212,-1.71368,-1.13188,0.000142589,0,0,0
 17:48:58.213,-1.71372,-1.13142,0.000169795,0,0,0
 17:48:58.213,-1.71371,-1.13162,0.000160454,0,0,0
 17:48:58.213,-1.71375,-1.13123,4.22008e-05,0,0,0
 17:48:58.214,-1.71384,-1.13083,4.69296e-06,0,0,0
 17:48:58.215,-1.71446,-1.12983,-6.42858e-05,0,0,0
 17:48:58.215,-1.71449,-1.12939,-0.000102336,0,0,0
 17:48:58.216,-1.71449,-1.12893,-8.78366e-05,0,0,0
 17:48:58.216,-1.71452,-1.1285,-6.00771e-05,0,0,0
 17:48:58.216,-1.7146,-1.12811,-1.82039e-05,0,0,0
 17:48:58.217,-1.71407,-1.1283,1.33083e-05,0,0,0
 17:48:58.218,-1.71411,-1.12849,4.43289e-05,0,0,0
 17:48:58.218,-1.7142,-1.12871,2.3762e-05,0,0,0
 17:48:58.219,-1.71434,-1.1289,-2.15897e-05,0,0,0
 17:48:58.219,-1.71444,-1.12903,2.49246e-05,0,0,0
 17:48:58.220,-1.71453,-1.12974,-3.05584e-05,0,0,0
 17:48:58.220,-1.71522,-1.12991,-0.000169072,0,0,0
 17:48:58.221,-1.71532,-1.13075,-0.000132503,0,0,0
 17:48:58.221,-1.71538,-1.13156,-0.000136311,0,0,0
 17:48:58.222,-1.71544,-1.1317,-0.000223542,0,0,0
 17:48:58.222,-1.71551,-1.13127,-0.000274356,0,0,0
 17:48:58.223,-1.71554,-1.13142,-0.000295277,0,0,0
 17:48:58.223,-1.71559,-1.13162,-0.000315738,0,0,0
 17:48:58.224,-1.71564,-1.13181,-0.00028353,0,0,0
 17:48:58.224,-1.71569,-1.13202,-0.000238694,0,0,0
 17:48:58.225,-1.71516,-1.13223,-0.00019432,0,0,0
 17:48:58.225,-1.71468,-1.13239,-0.000109924,0,0,0
 17:48:58.226,-1.71424,-1.13251,-6.47929e-05,0,0,0
 17:48:58.226,-1.7144,-1.1326,-5.89496e-05,0,0,0
 17:48:58.227,-1.71387,-1.13211,-0.00013896,0,0,0
 17:48:58.227,-1.7139,-1.1311,-0.000249141,0,0,0
 17:48:58.228,-1.71397,-1.13075,-0.000275085,0,0,0
 17:48:58.228,-1.71408,-1.13043,-0.000260275,0,0,0
 17:48:58.229,-1.71411,-1.13002,-0.000260481,0,0,0
 17:48:58.229,-1.71415,-1.12898,-0.000383046,0,0,0
 17:48:58.229,-1.71363,-1.12857,-0.000434279,0,0,0
 17:48:58.230,-1.7137,-1.1282,-0.000472052,0,0,0
 17:48:58.231,-1.71317,-1.12782,-0.00056259,0,0,0
 17:48:58.231,-1.71324,-1.12801,-0.000621041,0,0,0
 17:48:58.232,-1.71271,-1.1276,-0.000644155,0,0,0
 17:48:58.232,-1.71279,-1.12722,-0.000627338,0,0,0
 17:48:58.233,-1.71174,-1.12748,-0.000632816,0,0,0
 17:48:58.233,-1.71243,-1.12773,-0.000650861,0,0,0
 17:48:58.234,-1.71197,-1.12794,-0.000628951,0,0,0
 17:48:58.234,-1.71269,-1.12821,-0.000633167,0,0,0
 17:48:58.235,-1.71278,-1.1285,-0.00061249,0,0,0
 17:48:58.235,-1.71339,-1.12822,-0.000584069,0,0,0
 17:48:58.236,-1.71291,-1.1285,-0.000537442,0,0,0
 17:48:58.236,-1.71304,-1.12925,-0.000525709,0,0,0
 17:48:58.237,-1.71313,-1.12994,-0.000607332,0,0,0
 17:48:58.237,-1.7138,-1.13067,-0.000649055,0,0,0
 17:48:58.238,-1.71389,-1.13142,-0.000558318,0,0,0
 17:48:58.238,-1.71401,-1.13278,-0.000437826,0,0,0
 17:48:58.239,-1.71409,-1.13408,-0.000371782,0,0,0
 17:48:58.239,-1.71416,-1.1353,-0.00033225,0,0,0
 17:48:58.240,-1.71421,-1.13597,-0.000324256,0,0,0
 17:48:58.240,-1.71421,-1.13666,-0.000291481,0,0,0
 17:48:58.241,-1.71423,-1.1367,-0.000288766,0,0,0
 17:48:58.241,-1.7143,-1.13611,-0.000394151,0,0,0
 17:48:58.242,-1.71499,-1.13504,-0.00050197,0,0,0
 17:48:58.242,-1.71569,-1.13399,-0.000530158,0,0,0
 17:48:58.243,-1.71634,-1.13291,-0.000598206,0,0,0
 17:48:58.243,-1.71635,-1.13128,-0.000697163,0,0,0
 17:48:58.244,-1.71577,-1.13024,-0.000778768,0,0,0
 17:48:58.244,-1.71578,-1.1298,-0.000789681,0,0,0
 17:48:58.245,-1.71576,-1.12874,-0.000791863,0,0,0
 17:48:58.245,-1.71575,-1.12829,-0.000803048,0,0,0
 17:48:58.245,-1.71579,-1.12855,-0.000902043,0,0,0
 17:48:58.246,-1.71589,-1.12885,-0.000972829,0,0,0
 17:48:58.247,-1.71598,-1.12905,-0.000938417,0,0,0
 17:48:58.247,-1.71602,-1.12971,-0.000940143,0,0,0
 17:48:58.248,-1.71608,-1.12979,-0.00103859,0,0,0
 17:48:58.248,-1.71669,-1.12933,-0.00108862,0,0,0
 17:48:58.248,-1.71613,-1.12834,-0.00110307,0,0,0
 17:48:58.249,-1.71557,-1.12736,-0.00114382,0,0,0
 17:48:58.250,-1.71559,-1.1264,-0.00118415,0,0,0
 17:48:58.250,-1.71561,-1.12659,-0.00120305,0,0,0
 17:48:58.251,-1.71563,-1.1268,-0.00123504,0,0,0
 17:48:58.251,-1.71566,-1.127,-0.00126671,0,0,0
 17:48:58.252,-1.7163,-1.12837,-0.00122326,0,0,0
 17:48:58.252,-1.71693,-1.12972,-0.00118025,0,0,0
 17:48:58.253,-1.71699,-1.13105,-0.00113767,0,0,0
 17:48:58.253,-1.71755,-1.13179,-0.00114044,0,0,0
 17:48:58.254,-1.71809,-1.13304,-0.00117887,0,0,0
 17:48:58.254,-1.71863,-1.13428,-0.00121689,0,0,0
 17:48:58.255,-1.71858,-1.1355,-0.00125452,0,0,0
 17:48:58.255,-1.71863,-1.13558,-0.00131091,0,0,0
 17:48:58.256,-1.71868,-1.13566,-0.00136672,0,0,0
 17:48:58.256,-1.71873,-1.13574,-0.00142196,0,0,0
 17:48:58.257,-1.7182,-1.13581,-0.00147663,0,0,0
 17:48:58.257,-1.71762,-1.13588,-0.00146661,0,0,0
 17:48:58.258,-1.71704,-1.13595,-0.00145669,0,0,0
 17:48:58.258,-1.71646,-1.13602,-0.00144686,0,0,0
 17:48:58.259,-1.71589,-1.13609,-0.00143712,0,0,0
 17:48:58.259,-1.71533,-1.13616,-0.00142748,0,0,0
 17:48:58.260,-1.71477,-1.13622,-0.00141793,0,0,0
 17:48:58.260,-1.71422,-1.13629,-0.00140847,0,0,0
 17:48:58.261,-1.71367,-1.13636,-0.0013991,0,0,0
 17:48:58.261,-1.71313,-1.13642,-0.00138982,0,0,0
 17:48:58.261,-1.7126,-1.13649,-0.00138063,0,0,0
 17:48:58.262,-1.71207,-1.13655,-0.00137152,0,0,0
 17:48:58.263,-1.71154,-1.13662,-0.0013625,0,0,0
 17:48:58.263,-1.71102,-1.13668,-0.00135357,0,0,0
 17:48:58.264,-1.71051,-1.13674,-0.00134472,0,0,0
 17:48:58.264,-1.71,-1.13681,-0.00133596,0,0,0
 17:48:58.265,-1.70949,-1.13687,-0.00132728,0,0,0
 17:48:58.265,-1.70899,-1.13693,-0.00131868,0,0,0
 17:48:58.266,-1.7085,-1.13699,-0.00131017,0,0,0
 17:48:58.266,-1.70801,-1.13705,-0.00130173,0,0,0
 17:48:58.267,-1.70753,-1.13711,-0.00129338,0,0,0
 17:48:58.267,-1.70705,-1.13717,-0.0012851,0,0,0
 17:48:58.268,-1.70657,-1.13723,-0.0012769,0,0,0
 17:48:58.268,-1.7061,-1.13729,-0.00126879,0,0,0
 17:48:58.269,-1.70563,-1.13735,-0.00126074,0,0,0
 17:48:58.269,-1.70517,-1.13741,-0.00125278,0,0,0
 17:48:58.270,-1.70472,-1.13747,-0.00124489,0,0,0
 17:48:58.270,-1.70427,-1.13753,-0.00123708,0,0,0
 17:48:58.271,-1.70382,-1.13758,-0.00122934,0,0,0
 17:48:58.271,-1.70338,-1.13764,-0.00122167,0,0,0
 17:48:58.272,-1.70294,-1.1377,-0.00121408,0,0,0
 17:48:58.272,-1.7025,-1.13775,-0.00120655,0,0,0
 17:48:58.273,-1.70207,-1.13781,-0.0011991,0,0,0
 17:48:58.273,-1.70165,-1.13786,-0.00119172,0,0,0
 17:48:58.274,-1.70123,-1.13792,-0.00118442,0,0,0
 17:48:58.274,-1.70081,-1.13797,-0.00117718,0,0,0
 17:48:58.275,-1.70043,-1.13689,-0.00124252,0,0,0
 17:48:58.275,-1.70005,-1.13582,-0.00130721,0,0,0
 17:48:58.276,-1.69967,-1.13476,-0.00137123,0,0,0
 17:48:58.276,-1.69993,-1.13328,-0.00147742,0,0,0
 17:48:58.277,-1.70011,-1.13235,-0.00156748,0,0,0
 17:48:58.277,-1.7003,-1.13143,-0.00165667,0,0,0
 17:48:58.277,-1.70048,-1.13051,-0.001745,0,0,0
 17:48:58.278,-1.70066,-1.12961,-0.00183248,0,0,0
 17:48:58.279,-1.70084,-1.12871,-0.0019191,0,0,0
 17:48:58.279,-1.70105,-1.12831,-0.00204081,0,0,0
 17:48:58.280,-1.70066,-1.12857,-0.00204038,0,0,0
 17:48:58.280,-1.70086,-1.12885,-0.00198724,0,0,0
 17:48:58.281,-1.70105,-1.12908,-0.00186816,0,0,0
 17:48:58.281,-1.70126,-1.1299,-0.001772,0,0,0
 17:48:58.282,-1.70145,-1.13016,-0.00181268,0,0,0
 17:48:58.282,-1.70165,-1.13102,-0.00186181,0,0,0
 17:48:58.283,-1.70186,-1.13186,-0.00187109,0,0,0
 17:48:58.283,-1.70208,-1.13261,-0.00181382,0,0,0
 17:48:58.284,-1.70229,-1.13269,-0.00176042,0,0,0
 17:48:58.284,-1.70248,-1.1334,-0.00169046,0,0,0
 17:48:58.285,-1.70207,-1.13418,-0.00171436,0,0,0
 17:48:58.285,-1.70166,-1.13551,-0.00176015,0,0,0
 17:48:58.286,-1.70186,-1.13562,-0.00182632,0,0,0
 17:48:58.286,-1.70208,-1.13572,-0.0018124,0,0,0
 17:48:58.287,-1.70229,-1.13578,-0.00183838,0,0,0
 17:48:58.287,-1.70303,-1.13529,-0.00182993,0,0,0
 17:48:58.288,-1.70374,-1.1354,-0.00175254,0,0,0
 17:48:58.288,-1.70385,-1.13491,-0.00177209,0,0,0
 17:48:58.289,-1.704,-1.1344,-0.00186978,0,0,0
 17:48:58.289,-1.70412,-1.1345,-0.00188488,0,0,0
 17:48:58.290,-1.70364,-1.13405,-0.00179833,0,0,0
 17:48:58.290,-1.70375,-1.13361,-0.00176487,0,0,0
 17:48:58.291,-1.70388,-1.13314,-0.00177073,0,0,0
 17:48:58.291,-1.70402,-1.13326,-0.00181164,0,0,0
 17:48:58.292,-1.70423,-1.13344,-0.00183731,0,0,0
 17:48:58.292,-1.70442,-1.13368,-0.0018108,0,0,0
 17:48:58.293,-1.70456,-1.1333,-0.00185524,0,0,0
 17:48:58.293,-1.70408,-1.13281,-0.00187389,0,0,0
 17:48:58.294,-1.70362,-1.13173,-0.00185598,0,0,0
 17:48:58.294,-1.70317,-1.13127,-0.00187371,0,0,0
 17:48:58.295,-1.70271,-1.13084,-0.00191775,0,0,0
 17:48:58.295,-1.70289,-1.13045,-0.00198687,0,0,0
 17:48:58.296,-1.70373,-1.13016,-0.00201466,0,0,0
 17:48:58.296,-1.70458,-1.13048,-0.00202413,0,0,0
 17:48:58.297,-1.7054,-1.13076,-0.00208652,0,0,0
 17:48:58.297,-1.70617,-1.13096,-0.00217617,0,0,0
 17:48:58.298,-1.70636,-1.13113,-0.00217354,0,0,0
 17:48:58.298,-1.70649,-1.13185,-0.00212867,0,0,0
 17:48:58.299,-1.70657,-1.13199,-0.00212839,0,0,0
 17:48:58.299,-1.70604,-1.13161,-0.00205395,0,0,0
 17:48:58.300,-1.70613,-1.13179,-0.00185542,0,0,0
 17:48:58.300,-1.7074,-1.13191,-0.00174884,0,0,0
 17:48:58.301,-1.70872,-1.1326,-0.00168957,0,0,0
 17:48:58.301,-1.70952,-1.13335,-0.00165576,0,0,0
 17:48:58.302,-1.7108,-1.13461,-0.00159404,0,0,0
 17:48:58.302,-1.71137,-1.13464,-0.00159613,0,0,0
 17:48:58.303,-1.71133,-1.13472,-0.00159869,0,0,0
 17:48:58.303,-1.7108,-1.13481,-0.00158628,0,0,0
 17:48:58.304,-1.71032,-1.13489,-0.00158583,0,0,0
 17:48:58.304,-1.70984,-1.13497,-0.00154611,0,0,0
 17:48:58.305,-1.70997,-1.1351,-0.00145379,0,0,0
 17:48:58.305,-1.7101,-1.13523,-0.00142777,0,0,0
 17:48:58.306,-1.70964,-1.13537,-0.00144179,0,0,0
 17:48:58.306,-1.70975,-1.13493,-0.00142058,0,0,0
 17:48:58.307,-1.70929,-1.13443,-0.00139937,0,0,0
 17:48:58.307,-1.70944,-1.13328,-0.00149965,0,0,0
 17:48:58.308,-1.70845,-1.13217,-0.00155952,0,0,0
 17:48:58.308,-1.70856,-1.13113,-0.00154088,0,0,0
 17:48:58.309,-1.70809,-1.13076,-0.00150585,0,0,0
 17:48:58.309,-1.70821,-1.13043,-0.00150997,0,0,0
 17:48:58.310,-1.70834,-1.1301,-0.00151375,0,0,0
 17:48:58.310,-1.70905,-1.13028,-0.00148722,0,0,0
 17:48:58.311,-1.70859,-1.13045,-0.00148744,0,0,0
 17:48:58.311,-1.70871,-1.13008,-0.0014915,0,0,0
 17:48:58.312,-1.70883,-1.13029,-0.00151761,0,0,0
 17:48:58.312,-1.70895,-1.12987,-0.00154743,0,0,0
 17:48:58.313,-1.709,-1.13005,-0.00152212,0,0,0
 17:48:58.314,-1.70906,-1.13025,-0.00145788,0,0,0
 17:48:58.314,-1.70918,-1.13101,-0.00136244,0,0,0
 17:48:58.314,-1.70992,-1.13176,-0.0013325,0,0,0
 17:48:58.315,-1.71066,-1.13313,-0.00132455,0,0,0
 17:48:58.315,-1.71087,-1.13452,-0.00126317,0,0,0
 17:48:58.316,-1.71104,-1.13588,-0.00117681,0,0,0
 17:48:58.317,-1.71119,-1.13778,-0.00110094,0,0,0
 17:48:58.317,-1.7107,-1.13959,-0.00113295,0,0,0
 17:48:58.317,-1.71021,-1.14082,-0.00116927,0,0,0
 17:48:58.318,-1.71029,-1.142,-0.0011128,0,0,0
 17:48:58.318,-1.71042,-1.14199,-0.00111592,0,0,0
 17:48:58.319,-1.71112,-1.14081,-0.00118007,0,0,0
 17:48:58.319,-1.7118,-1.14021,-0.00126573,0,0,0
 17:48:58.320,-1.71305,-1.13909,-0.00130239,0,0,0
 17:48:58.320,-1.71314,-1.13857,-0.00125554,0,0,0
 17:48:58.321,-1.71316,-1.13804,-0.00127648,0,0,0
 17:48:58.321,-1.71259,-1.13758,-0.00136344,0,0,0
 17:48:58.322,-1.71148,-1.13768,-0.00139241,0,0,0
 17:48:58.322,-1.71041,-1.13773,-0.00139435,0,0,0
 17:48:58.323,-1.7099,-1.13774,-0.00138314,0,0,0
 17:48:58.323,-1.7094,-1.13836,-0.00143448,0,0,0
 17:48:58.324,-1.71069,-1.13846,-0.00146181,0,0,0
 17:48:58.324,-1.71086,-1.13917,-0.00143179,0,0,0
 17:48:58.325,-1.711,-1.13929,-0.00138027,0,0,0
 17:48:58.325,-1.71111,-1.13883,-0.00136012,0,0,0
 17:48:58.326,-1.71059,-1.13773,-0.00139767,0,0,0
 17:48:58.326,-1.71065,-1.13604,-0.00146478,0,0,0
 17:48:58.327,-1.71014,-1.13436,-0.00150473,0,0,0
 17:48:58.327,-1.70965,-1.13329,-0.00150066,0,0,0
 17:48:58.328,-1.70976,-1.13285,-0.0014926,0,0,0
 17:48:58.328,-1.71052,-1.13247,-0.00154886,0,0,0
 17:48:58.329,-1.71126,-1.13209,-0.00159214,0,0,0
 17:48:58.330,-1.71137,-1.13224,-0.00153987,0,0,0
 17:48:58.330,-1.7115,-1.13235,-0.00146092,0,0,0
 17:48:58.330,-1.71104,-1.13246,-0.00139654,0,0,0
 17:48:58.331,-1.71052,-1.1321,-0.00141703,0,0,0
 17:48:58.331,-1.71054,-1.13234,-0.00142112,0,0,0
 17:48:58.332,-1.71059,-1.1325,-0.00143748,0,0,0
 17:48:58.333,-1.71062,-1.13264,-0.00148052,0,0,0
 17:48:58.333,-1.71125,-1.13391,-0.00148873,0,0,0
 17:48:58.333,-1.71248,-1.13458,-0.00155247,0,0,0
 17:48:58.334,-1.71318,-1.13529,-0.00158817,0,0,0
 17:48:58.334,-1.71327,-1.136,-0.00158501,0,0,0
 17:48:58.335,-1.71273,-1.13611,-0.00157386,0,0,0
 17:48:58.335,-1.71277,-1.13623,-0.00151017,0,0,0
 17:48:58.336,-1.71222,-1.13573,-0.00143856,0,0,0
 17:48:58.336,-1.71224,-1.13515,-0.0013797,0,0,0
 17:48:58.337,-1.7123,-1.13522,-0.00138251,0,0,0
 17:48:58.337,-1.71238,-1.13485,-0.0014421,0,0,0
 17:48:58.338,-1.71249,-1.13446,-0.00147428,0,0,0
 17:48:58.338,-1.71262,-1.13406,-0.00159853,0,0,0
 17:48:58.339,-1.71213,-1.13306,-0.00182014,0,0,0
 17:48:58.340,-1.71272,-1.13256,-0.00185365,0,0,0
 17:48:58.340,-1.71214,-1.13203,-0.00183453,0,0,0
 17:48:58.340,-1.71165,-1.13156,-0.00190571,0,0,0
 17:48:58.341,-1.71057,-1.13109,-0.00199011,0,0,0
 17:48:58.341,-1.71007,-1.13003,-0.00202536,0,0,0
 17:48:58.344,-1.70961,-1.12957,-0.00196278,0,0,0
 17:48:58.344,-1.70919,-1.12856,-0.00200933,0,0,0
 17:48:58.344,-1.70936,-1.12816,-0.0021177,0,0,0
 17:48:58.344,-1.71011,-1.1284,-0.00219515,0,0,0
 17:48:58.346,-1.71023,-1.12863,-0.00220794,0,0,0
 17:48:58.346,-1.71026,-1.12998,-0.00216259,0,0,0
 17:48:58.347,-1.71086,-1.13129,-0.00207797,0,0,0
 17:48:58.347,-1.7115,-1.13261,-0.00200653,0,0,0
 17:48:58.348,-1.71216,-1.13396,-0.00202761,0,0,0
 17:48:58.348,-1.71278,-1.13469,-0.0020138,0,0,0
 17:48:58.349,-1.71341,-1.13481,-0.00192458,0,0,0
 17:48:58.349,-1.71355,-1.13546,-0.00182833,0,0,0
 17:48:58.350,-1.71423,-1.13612,-0.00178613,0,0,0
 17:48:58.350,-1.7137,-1.13624,-0.00188218,0,0,0
 17:48:58.350,-1.7143,-1.13639,-0.00197795,0,0,0
 17:48:58.351,-1.71436,-1.13652,-0.00200672,0,0,0
 17:48:58.351,-1.71441,-1.13606,-0.00201317,0,0,0
 17:48:58.352,-1.71508,-1.13617,-0.00197491,0,0,0
 17:48:58.353,-1.71515,-1.13566,-0.0020206,0,0,0
 17:48:58.353,-1.71457,-1.13512,-0.0020942,0,0,0
 17:48:58.353,-1.71454,-1.13401,-0.00215899,0,0,0
 17:48:58.354,-1.71395,-1.13352,-0.00215332,0,0,0
 17:48:58.354,-1.71396,-1.13251,-0.00217718,0,0,0
 17:48:58.355,-1.71344,-1.13147,-0.00219953,0,0,0
 17:48:58.356,-1.71293,-1.13042,-0.00219583,0,0,0
 17:48:58.356,-1.71243,-1.12943,-0.00220493,0,0,0
 17:48:58.357,-1.71249,-1.12906,-0.0022369,0,0,0
 17:48:58.357,-1.71257,-1.12874,-0.00224175,0,0,0
 17:48:58.357,-1.71206,-1.12893,-0.00219006,0,0,0
 17:48:58.358,-1.71207,-1.12909,-0.00217986,0,0,0
 17:48:58.359,-1.71209,-1.12923,-0.00220853,0,0,0
 17:48:58.359,-1.7128,-1.12878,-0.00226471,0,0,0
 17:48:58.359,-1.71298,-1.12773,-0.00228344,0,0,0
 17:48:58.360,-1.71368,-1.12677,-0.00227686,0,0,0
 17:48:58.360,-1.71374,-1.12645,-0.00230748,0,0,0
 17:48:58.361,-1.71385,-1.12611,-0.00236269,0,0,0
 17:48:58.362,-1.71454,-1.12575,-0.00239086,0,0,0
 17:48:58.362,-1.71463,-1.1254,-0.00238009,0,0,0
 17:48:58.363,-1.71464,-1.12511,-0.00243723,0,0,0
 17:48:58.363,-1.71473,-1.12546,-0.00240943,0,0,0
 17:48:58.363,-1.7142,-1.12627,-0.0022331,0,0,0
 17:48:58.364,-1.71367,-1.1271,-0.0021367,0,0,0
 17:48:58.365,-1.7143,-1.12792,-0.0021328,0,0,0
 17:48:58.365,-1.71436,-1.12811,-0.00211959,0,0,0
 17:48:58.366,-1.71503,-1.12827,-0.00205332,0,0,0
 17:48:58.366,-1.71514,-1.12845,-0.00202648,0,0,0
 17:48:58.366,-1.71523,-1.12869,-0.00201356,0,0,0
 17:48:58.367,-1.71581,-1.12891,-0.00202876,0,0,0
 17:48:58.367,-1.71519,-1.12907,-0.00205838,0,0,0
 17:48:58.368,-1.71465,-1.12871,-0.00206364,0,0,0
 17:48:58.369,-1.71473,-1.12891,-0.00206369,0,0,0
 17:48:58.369,-1.71421,-1.1285,-0.00208157,0,0,0
 17:48:58.369,-1.71425,-1.12868,-0.00200337,0,0,0
 17:48:58.370,-1.71433,-1.12835,-0.00199425,0,0,0
 17:48:58.370,-1.71389,-1.12803,-0.00199775,0,0,0
 17:48:58.371,-1.71398,-1.12823,-0.00199778,0,0,0
 17:48:58.372,-1.71343,-1.12781,-0.00204236,0,0,0
 17:48:58.372,-1.71292,-1.12683,-0.00203742,0,0,0
 17:48:58.373,-1.71238,-1.1264,-0.00204186,0,0,0
 17:48:58.373,-1.71243,-1.12545,-0.00207632,0,0,0
 17:48:58.373,-1.71253,-1.12511,-0.00205333,0,0,0
 17:48:58.374,-1.71265,-1.12475,-0.00200326,0,0,0
 17:48:58.375,-1.71275,-1.12435,-0.00201952,0,0,0
 17:48:58.375,-1.71294,-1.12401,-0.00212657,0,0,0
 17:48:58.375,-1.71309,-1.12429,-0.00217682,0,0,0
 17:48:58.376,-1.71255,-1.12395,-0.00216755,0,0,0
 17:48:58.376,-1.71204,-1.12361,-0.00213168,0,0,0
 17:48:58.377,-1.71215,-1.12272,-0.00215166,0,0,0
 17:48:58.378,-1.71227,-1.12186,-0.00218401,0,0,0
 17:48:58.378,-1.71239,-1.12164,-0.00216038,0,0,0
 17:48:58.379,-1.71256,-1.12149,-0.00213517,0,0,0
 17:48:58.379,-1.71335,-1.12252,-0.00212723,0,0,0
 17:48:58.379,-1.71349,-1.12402,-0.00202471,0,0,0
 17:48:58.380,-1.71362,-1.1255,-0.00192347,0,0,0
 17:48:58.381,-1.71373,-1.12694,-0.00184987,0,0,0
 17:48:58.381,-1.71323,-1.12776,-0.0017279,0,0,0
 17:48:58.382,-1.71276,-1.12853,-0.00168512,0,0,0
 17:48:58.382,-1.71286,-1.12873,-0.00168617,0,0,0
 17:48:58.383,-1.71297,-1.12893,-0.00163439,0,0,0
 17:48:58.383,-1.71312,-1.1286,-0.0015605,0,0,0
 17:48:58.383,-1.71324,-1.12822,-0.00154023,0,0,0
 17:48:58.384,-1.71335,-1.12779,-0.00154637,0,0,0
 17:48:58.385,-1.71287,-1.12741,-0.0015007,0,0,0
 17:48:58.385,-1.71241,-1.12651,-0.00145844,0,0,0
 17:48:58.386,-1.71196,-1.12565,-0.00148183,0,0,0
 17:48:58.386,-1.71149,-1.1242,-0.00154864,0,0,0
 17:48:58.386,-1.71098,-1.12328,-0.00158592,0,0,0
 17:48:58.387,-1.71108,-1.12241,-0.00159598,0,0,0
 17:48:58.388,-1.71116,-1.12216,-0.00157618,0,0,0
 17:48:58.388,-1.71128,-1.12184,-0.00154221,0,0,0
 17:48:58.389,-1.71146,-1.12151,-0.00157228,0,0,0
 17:48:58.389,-1.71166,-1.12123,-0.00157548,0,0,0
 17:48:58.389,-1.71179,-1.12041,-0.00150494,0,0,0
 17:48:58.390,-1.71191,-1.1202,-0.00143164,0,0,0
 17:48:58.391,-1.7114,-1.11999,-0.00141242,0,0,0
 17:48:58.391,-1.71091,-1.1197,-0.0014722,0,0,0
 17:48:58.392,-1.71043,-1.11996,-0.00148776,0,0,0
 17:48:58.392,-1.70996,-1.12082,-0.00137993,0,0,0
 17:48:58.392,-1.71015,-1.1217,-0.00132416,0,0,0
 17:48:58.393,-1.71034,-1.12258,-0.0012951,0,0,0
 17:48:58.394,-1.7111,-1.1235,-0.00126648,0,0,0
 17:48:58.394,-1.71123,-1.1238,-0.00124278,0,0,0
 17:48:58.395,-1.71076,-1.12342,-0.00135605,0,0,0
 17:48:58.395,-1.71018,-1.12297,-0.00145736,0,0,0
 17:48:58.396,-1.70955,-1.12194,-0.00148417,0,0,0
 17:48:58.396,-1.70957,-1.12103,-0.00148274,0,0,0
 17:48:58.397,-1.7097,-1.12018,-0.0014531,0,0,0
 17:48:58.397,-1.71108,-1.11998,-0.00133821,0,0,0
 17:48:58.398,-1.71244,-1.11981,-0.00123729,0,0,0
 17:48:58.398,-1.71319,-1.1208,-0.00115592,0,0,0
 17:48:58.399,-1.71268,-1.12173,-0.00109107,0,0,0
 17:48:58.399,-1.71153,-1.12258,-0.00106785,0,0,0
 17:48:58.399,-1.7103,-1.12335,-0.00104692,0,0,0
 17:48:58.400,-1.70966,-1.12409,-0.000986515,0,0,0
 17:48:58.401,-1.70971,-1.12431,-0.00100704,0,0,0
 17:48:58.401,-1.7117,-1.12399,-0.00110616,0,0,0
 17:48:58.402,-1.71376,-1.12377,-0.00117641,0,0,0
 17:48:58.402,-1.71515,-1.12425,-0.00117879,0,0,0
 17:48:58.402,-1.71528,-1.12413,-0.00112131,0,0,0
 17:48:58.403,-1.71414,-1.12444,-0.00108833,0,0,0
 17:48:58.404,-1.71289,-1.12453,-0.00111118,0,0,0
 17:48:58.404,-1.71158,-1.12397,-0.00113874,0,0,0
 17:48:58.405,-1.71094,-1.12357,-0.00111154,0,0,0
 17:48:58.405,-1.71157,-1.12384,-0.00103816,0,0,0
 17:48:58.405,-1.71229,-1.12412,-0.000936912,0,0,0
 17:48:58.406,-1.71306,-1.12441,-0.000875072,0,0,0
 17:48:58.407,-1.71384,-1.12585,-0.000831744,0,0,0
 17:48:58.407,-1.71397,-1.12672,-0.000768031,0,0,0
 17:48:58.408,-1.71343,-1.12637,-0.000767667,0,0,0
 17:48:58.408,-1.71287,-1.12537,-0.000850903,0,0,0
 17:48:58.408,-1.71169,-1.12495,-0.00091716,0,0,0
 17:48:58.409,-1.71051,-1.12397,-0.00100002,0,0,0
 17:48:58.410,-1.71056,-1.12249,-0.00103226,0,0,0
 17:48:58.410,-1.71072,-1.12166,-0.00103129,0,0,0
 17:48:58.411,-1.7115,-1.12142,-0.00105153,0,0,0
 17:48:58.411,-1.71224,-1.12174,-0.00102901,0,0,0
 17:48:58.412,-1.71294,-1.12211,-0.00103397,0,0,0
 17:48:58.412,-1.71304,-1.1225,-0.00106532,0,0,0
 17:48:58.413,-1.71254,-1.12277,-0.00107078,0,0,0
 17:48:58.413,-1.71203,-1.12299,-0.00104988,0,0,0
 17:48:58.414,-1.71094,-1.12321,-0.000977386,0,0,0
 17:48:58.414,-1.71101,-1.12401,-0.000888578,0,0,0
 17:48:58.415,-1.7111,-1.12485,-0.000839063,0,0,0
 17:48:58.415,-1.71122,-1.12572,-0.000815837,0,0,0
 17:48:58.415,-1.71191,-1.12598,-0.000836305,0,0,0
 17:48:58.416,-1.7127,-1.12681,-0.000823894,0,0,0
 17:48:58.417,-1.71287,-1.12699,-0.000736543,0,0,0
 17:48:58.417,-1.71357,-1.126,-0.000737767,0,0,0
 17:48:58.418,-1.71361,-1.12554,-0.00078949,0,0,0
 17:48:58.418,-1.71305,-1.12455,-0.000832063,0,0,0
 17:48:58.419,-1.71307,-1.12365,-0.000914407,0,0,0
 17:48:58.419,-1.71314,-1.12336,-0.00096452,0,0,0
 17:48:58.420,-1.71327,-1.12368,-0.000943332,0,0,0
 17:48:58.420,-1.71398,-1.1234,-0.000926485,0,0,0
 17:48:58.421,-1.71414,-1.12427,-0.000900624,0,0,0
 17:48:58.421,-1.71365,-1.12462,-0.000907687,0,0,0
 17:48:58.422,-1.71368,-1.12552,-0.000819623,0,0,0
 17:48:58.422,-1.71317,-1.1258,-0.000814153,0,0,0
 17:48:58.423,-1.71264,-1.12601,-0.000782845,0,0,0
 17:48:58.423,-1.71268,-1.12672,-0.000734744,0,0,0
 17:48:58.424,-1.71217,-1.12687,-0.000755691,0,0,0
 17:48:58.424,-1.71225,-1.12653,-0.000727527,0,0,0
 17:48:58.425,-1.71234,-1.12564,-0.000677337,0,0,0
 17:48:58.425,-1.71187,-1.12416,-0.000789503,0,0,0
 17:48:58.426,-1.71198,-1.12322,-0.000909611,0,0,0
 17:48:58.426,-1.71149,-1.12229,-0.000989201,0,0,0
 17:48:58.427,-1.71157,-1.12141,-0.0009768,0,0,0
 17:48:58.427,-1.71158,-1.12055,-0.000899366,0,0,0
 17:48:58.428,-1.71099,-1.12029,-0.000859101,0,0,0
 17:48:58.428,-1.71103,-1.12005,-0.0008835,0,0,0
 17:48:58.429,-1.71107,-1.1198,-0.000894616,0,0,0
 17:48:58.429,-1.71107,-1.1201,-0.000915651,0,0,0
 17:48:58.430,-1.71112,-1.12096,-0.000944188,0,0,0
 17:48:58.430,-1.71121,-1.12126,-0.000909627,0,0,0
 17:48:58.431,-1.71132,-1.12214,-0.000897535,0,0,0
 17:48:58.431,-1.71131,-1.12242,-0.000879088,0,0,0
 17:48:58.432,-1.7119,-1.12443,-0.000795705,0,0,0
 17:48:58.432,-1.71136,-1.12643,-0.000739041,0,0,0
 17:48:58.433,-1.71136,-1.12788,-0.000687863,0,0,0
 17:48:58.433,-1.71132,-1.12982,-0.000621166,0,0,0
 17:48:58.434,-1.71129,-1.1311,-0.000492225,0,0,0
 17:48:58.434,-1.71129,-1.13177,-0.000380643,0,0,0
 17:48:58.435,-1.71132,-1.13238,-0.000414251,0,0,0
 17:48:58.435,-1.71133,-1.13244,-0.000517495,0,0,0
 17:48:58.436,-1.71139,-1.13194,-0.000596152,0,0,0
 17:48:58.436,-1.71211,-1.13145,-0.000633099,0,0,0
 17:48:58.437,-1.71221,-1.13039,-0.000673972,0,0,0
 17:48:58.437,-1.71222,-1.12878,-0.000747233,0,0,0
 17:48:58.438,-1.71165,-1.1278,-0.000724179,0,0,0
 17:48:58.438,-1.7111,-1.12682,-0.000726832,0,0,0
 17:48:58.439,-1.71117,-1.12639,-0.000803975,0,0,0
 17:48:58.439,-1.71123,-1.12594,-0.000854091,0,0,0
 17:48:58.440,-1.71132,-1.12557,-0.000864,0,0,0
 17:48:58.440,-1.71142,-1.12523,-0.000899796,0,0,0
 17:48:58.441,-1.71153,-1.12544,-0.00093089,0,0,0
 17:48:58.441,-1.71156,-1.12561,-0.000884499,0,0,0
 17:48:58.442,-1.71167,-1.12582,-0.000809529,0,0,0
 17:48:58.442,-1.71177,-1.1255,-0.000700529,0,0,0
 17:48:58.443,-1.71185,-1.12519,-0.000606513,0,0,0
 17:48:58.443,-1.71192,-1.12489,-0.000578611,0,0,0
 17:48:58.444,-1.712,-1.12456,-0.000602724,0,0,0
 17:48:58.444,-1.71213,-1.12477,-0.000621488,0,0,0
 17:48:58.445,-1.71166,-1.12498,-0.000640401,0,0,0
 17:48:58.445,-1.71171,-1.12521,-0.00064817,0,0,0
 17:48:58.446,-1.71168,-1.12545,-0.000565289,0,0,0
 17:48:58.446,-1.7111,-1.12563,-0.000587729,0,0,0
 17:48:58.447,-1.71117,-1.12574,-0.000700928,0,0,0
 17:48:58.447,-1.71074,-1.12588,-0.00070601,0,0,0
 17:48:58.448,-1.71029,-1.12665,-0.000642125,0,0,0
 17:48:58.448,-1.70977,-1.12744,-0.000607015,0,0,0
 17:48:58.449,-1.70983,-1.12826,-0.000624744,0,0,0
 17:48:58.449,-1.70987,-1.12905,-0.000656194,0,0,0
 17:48:58.450,-1.70994,-1.12984,-0.000673206,0,0,0
 17:48:58.450,-1.71063,-1.13003,-0.000692921,0,0,0
 17:48:58.451,-1.71075,-1.13014,-0.000751504,0,0,0
 17:48:58.451,-1.71143,-1.12964,-0.000761393,0,0,0
 17:48:58.452,-1.71205,-1.12971,-0.0007294,0,0,0
 17:48:58.452,-1.71212,-1.12926,-0.000727108,0,0,0
 17:48:58.453,-1.7122,-1.12834,-0.000728591,0,0,0
 17:48:58.453,-1.71171,-1.12803,-0.000712826,0,0,0
 17:48:58.454,-1.71176,-1.12766,-0.000737193,0,0,0
 17:48:58.454,-1.71121,-1.12784,-0.000745168,0,0,0
 17:48:58.455,-1.71071,-1.128,-0.000725554,0,0,0
 17:48:58.455,-1.71079,-1.1282,-0.000692925,0,0,0
 17:48:58.456,-1.71092,-1.12839,-0.000725764,0,0,0
 17:48:58.456,-1.71046,-1.12907,-0.000767531,0,0,0
 17:48:58.457,-1.71059,-1.12919,-0.000813029,0,0,0
 17:48:58.457,-1.71013,-1.12933,-0.000792815,0,0,0
 17:48:58.458,-1.70968,-1.12833,-0.000714121,0,0,0
 17:48:58.458,-1.70918,-1.12733,-0.000689923,0,0,0
 17:48:58.459,-1.70915,-1.12633,-0.000721001,0,0,0
 17:48:58.459,-1.70975,-1.12476,-0.000767141,0,0,0
 17:48:58.460,-1.70996,-1.12381,-0.000791048,0,0,0
 17:48:58.460,-1.7102,-1.12288,-0.000800779,0,0,0
 17:48:58.461,-1.7109,-1.12192,-0.000799349,0,0,0
 17:48:58.461,-1.711,-1.12156,-0.000860969,0,0,0
 17:48:58.462,-1.71108,-1.1218,-0.000998366,0,0,0
 17:48:58.462,-1.71116,-1.12207,-0.00101665,0,0,0
 17:48:58.463,-1.71191,-1.12359,-0.000945824,0,0,0
 17:48:58.463,-1.71262,-1.1245,-0.000880616,0,0,0
 17:48:58.464,-1.71268,-1.12479,-0.0007811,0,0,0
 17:48:58.464,-1.71213,-1.12614,-0.000675278,0,0,0
 17:48:58.465,-1.71222,-1.12747,-0.000595119,0,0,0
 17:48:58.465,-1.71232,-1.1282,-0.000677901,0,0,0
 17:48:58.466,-1.7118,-1.12888,-0.000760818,0,0,0
 17:48:58.466,-1.71128,-1.12956,-0.000724822,0,0,0
 17:48:58.467,-1.71133,-1.13024,-0.000623024,0,0,0
 17:48:58.467,-1.71142,-1.13093,-0.000560816,0,0,0
 17:48:58.468,-1.71153,-1.13167,-0.000551089,0,0,0
 17:48:58.468,-1.71102,-1.13183,-0.000507644,0,0,0
 17:48:58.469,-1.7105,-1.13139,-0.000442905,0,0,0
 17:48:58.469,-1.70993,-1.13033,-0.00047536,0,0,0
 17:48:58.470,-1.70943,-1.12928,-0.000492704,0,0,0
 17:48:58.470,-1.70903,-1.12768,-0.000445465,0,0,0
 17:48:58.471,-1.70866,-1.12613,-0.000411036,0,0,0
 17:48:58.471,-1.70826,-1.12458,-0.000469889,0,0,0
 17:48:58.472,-1.70782,-1.12362,-0.000565135,0,0,0
 17:48:58.472,-1.70744,-1.1227,-0.000645301,0,0,0
 17:48:58.473,-1.70709,-1.12237,-0.000693906,0,0,0
 17:48:58.473,-1.70664,-1.12203,-0.000731778,0,0,0
 17:48:58.474,-1.70618,-1.12173,-0.000743785,0,0,0
 17:48:58.474,-1.70632,-1.12147,-0.00078106,0,0,0
 17:48:58.475,-1.70647,-1.12175,-0.000787182,0,0,0
 17:48:58.475,-1.70717,-1.12136,-0.000810979,0,0,0
 17:48:58.476,-1.7067,-1.12094,-0.000782355,0,0,0
 17:48:58.476,-1.70684,-1.12061,-0.000766353,0,0,0
 17:48:58.477,-1.70702,-1.12033,-0.000749854,0,0,0
 17:48:58.477,-1.70778,-1.12001,-0.000759007,0,0,0
 17:48:58.478,-1.70795,-1.12023,-0.000817212,0,0,0
 17:48:58.478,-1.70801,-1.12098,-0.000835012,0,0,0
 17:48:58.479,-1.70804,-1.12118,-0.000804731,0,0,0
 17:48:58.479,-1.70813,-1.12148,-0.000746738,0,0,0
 17:48:58.480,-1.70881,-1.12239,-0.000711102,0,0,0
 17:48:58.480,-1.70892,-1.12446,-0.000654171,0,0,0
 17:48:58.481,-1.70957,-1.12588,-0.000576425,0,0,0
 17:48:58.481,-1.70967,-1.12668,-0.000555033,0,0,0
 17:48:58.482,-1.71094,-1.12743,-0.000626126,0,0,0
 17:48:58.482,-1.71163,-1.12876,-0.00062651,0,0,0
 17:48:58.483,-1.7117,-1.13004,-0.000588644,0,0,0
 17:48:58.483,-1.71175,-1.13017,-0.000638385,0,0,0
 17:48:58.484,-1.71119,-1.13032,-0.000662072,0,0,0
 17:48:58.484,-1.7112,-1.13103,-0.000563298,0,0,0
 17:48:58.485,-1.71122,-1.13119,-0.000482246,0,0,0
 17:48:58.485,-1.71124,-1.1314,-0.000454677,0,0,0
 17:48:58.486,-1.7107,-1.13154,-0.000492993,0,0,0
 17:48:58.486,-1.71077,-1.13105,-0.0005596,0,0,0
 17:48:58.487,-1.71085,-1.13058,-0.000559984,0,0,0
 17:48:58.487,-1.7103,-1.13014,-0.000614355,0,0,0
 17:48:58.488,-1.70974,-1.12967,-0.00065532,0,0,0
 17:48:58.488,-1.70921,-1.12861,-0.000712208,0,0,0
 17:48:58.489,-1.70874,-1.12813,-0.000763227,0,0,0
 17:48:58.489,-1.7077,-1.12769,-0.000801461,0,0,0
 17:48:58.490,-1.70779,-1.12671,-0.00083045,0,0,0
 17:48:58.490,-1.70795,-1.12687,-0.000875561,0,0,0
 17:48:58.491,-1.70806,-1.12638,-0.000899315,0,0,0
 17:48:58.491,-1.70757,-1.12597,-0.000871022,0,0,0
 17:48:58.492,-1.70714,-1.12624,-0.000943466,0,0,0
 17:48:58.492,-1.7067,-1.12643,-0.00100281,0,0,0
 17:48:58.493,-1.70684,-1.12656,-0.000929413,0,0,0
 17:48:58.493,-1.70637,-1.12673,-0.000936441,0,0,0
 17:48:58.494,-1.70704,-1.12696,-0.000930629,0,0,0
 17:48:58.494,-1.70775,-1.12776,-0.000894158,0,0,0
 17:48:58.495,-1.70847,-1.12856,-0.000844166,0,0,0
 17:48:58.495,-1.70917,-1.12874,-0.000812022,0,0,0
 17:48:58.496,-1.70987,-1.13,-0.000732202,0,0,0
 17:48:58.496,-1.70998,-1.13123,-0.000692259,0,0,0
 17:48:58.497,-1.71005,-1.13183,-0.000723294,0,0,0
 17:48:58.497,-1.7101,-1.13237,-0.000662183,0,0,0
 17:48:58.498,-1.71019,-1.13354,-0.000517261,0,0,0
 17:48:58.498,-1.71031,-1.1342,-0.000442437,0,0,0
 17:48:58.499,-1.71046,-1.13427,-0.000529162,0,0,0
 17:48:58.499,-1.71068,-1.13488,-0.000595988,0,0,0
 17:48:58.500,-1.71085,-1.135,-0.000589172,0,0,0
 17:48:58.500,-1.71087,-1.13517,-0.000559594,0,0,0
 17:48:58.501,-1.71089,-1.13473,-0.000547697,0,0,0
 17:48:58.501,-1.71042,-1.1337,-0.000589958,0,0,0
 17:48:58.502,-1.70999,-1.13323,-0.000680344,0,0,0
 17:48:58.502,-1.70895,-1.13214,-0.00077539,0,0,0
 17:48:58.503,-1.709,-1.13104,-0.000805173,0,0,0
 17:48:58.503,-1.70855,-1.13002,-0.000846384,0,0,0
 17:48:58.504,-1.70869,-1.12964,-0.000936373,0,0,0
 17:48:58.504,-1.70823,-1.12928,-0.00107846,0,0,0
 17:48:58.505,-1.70776,-1.1289,-0.00114117,0,0,0
 17:48:58.505,-1.70734,-1.1285,-0.00117617,0,0,0
 17:48:58.506,-1.70691,-1.12809,-0.00125005,0,0,0
 17:48:58.506,-1.70651,-1.12767,-0.00133579,0,0,0
 17:48:58.507,-1.7061,-1.12722,-0.00136816,0,0,0
 17:48:58.507,-1.70568,-1.12681,-0.00142744,0,0,0
 17:48:58.508,-1.70576,-1.12646,-0.00148843,0,0,0
 17:48:58.508,-1.70587,-1.12669,-0.00150448,0,0,0
 17:48:58.509,-1.70659,-1.12635,-0.00147101,0,0,0
 17:48:58.509,-1.70732,-1.1266,-0.00139417,0,0,0
 17:48:58.510,-1.70801,-1.12739,-0.00135398,0,0,0
 17:48:58.510,-1.70817,-1.12759,-0.00135628,0,0,0
 17:48:58.511,-1.70833,-1.1278,-0.00134542,0,0,0
 17:48:58.511,-1.70906,-1.128,-0.00134762,0,0,0
 17:48:58.512,-1.70919,-1.12821,-0.0013637,0,0,0
 17:48:58.512,-1.70929,-1.12892,-0.00137613,0,0,0
 17:48:58.513,-1.70948,-1.1296,-0.00149253,0,0,0
 17:48:58.513,-1.71025,-1.1303,-0.00151646,0,0,0
 17:48:58.514,-1.71039,-1.13046,-0.00142659,0,0,0
 17:48:58.514,-1.71049,-1.13116,-0.00133451,0,0,0
 17:48:58.515,-1.70996,-1.13182,-0.00129705,0,0,0
 17:48:58.516,-1.70947,-1.13194,-0.00130238,0,0,0
 17:48:58.516,-1.70959,-1.13212,-0.00132018,0,0,0
 17:48:58.516,-1.70911,-1.13229,-0.00133823,0,0,0
 17:48:58.517,-1.70926,-1.13184,-0.00138558,0,0,0
 17:48:58.517,-1.70943,-1.13133,-0.00144486,0,0,0
 17:48:58.518,-1.70903,-1.13138,-0.00142001,0,0,0
 17:48:58.518,-1.70921,-1.13147,-0.00135653,0,0,0
 17:48:58.519,-1.70934,-1.13103,-0.00131131,0,0,0
 17:48:58.519,-1.70888,-1.13063,-0.00133256,0,0,0
 17:48:58.520,-1.70896,-1.12963,-0.00137127,0,0,0
 17:48:58.520,-1.70907,-1.12918,-0.00132605,0,0,0
 17:48:58.521,-1.70923,-1.12875,-0.00135881,0,0,0
 17:48:58.521,-1.70938,-1.12835,-0.00141747,0,0,0
 17:48:58.522,-1.70959,-1.12796,-0.00143483,0,0,0
 17:48:58.522,-1.70919,-1.12703,-0.0014568,0,0,0
 17:48:58.523,-1.70878,-1.12612,-0.00153154,0,0,0
 17:48:58.523,-1.70833,-1.12635,-0.00148033,0,0,0
 17:48:58.524,-1.7084,-1.12655,-0.00137851,0,0,0
 17:48:58.524,-1.70789,-1.12677,-0.0013828,0,0,0
 17:48:58.525,-1.708,-1.12645,-0.00140336,0,0,0
 17:48:58.525,-1.70869,-1.12665,-0.00136676,0,0,0
 17:48:58.525,-1.7094,-1.1268,-0.00136929,0,0,0
 17:48:58.525,-1.70954,-1.12697,-0.00137143,0,0,0
 17:48:58.526,-1.71022,-1.12714,-0.00136143,0,0,0
 17:48:58.526,-1.71027,-1.12785,-0.00130899,0,0,0
 17:48:58.527,-1.71037,-1.12857,-0.00129515,0,0,0
 17:48:58.528,-1.71046,-1.12874,-0.00135139,0,0,0
 17:48:58.528,-1.71056,-1.12945,-0.00144161,0,0,0
 17:48:58.528,-1.71127,-1.129,-0.00147309,0,0,0
 17:48:58.529,-1.71195,-1.12859,-0.00137263,0,0,0
 17:48:58.529,-1.71202,-1.12878,-0.00127009,0,0,0
 17:48:58.530,-1.71207,-1.12897,-0.00130065,0,0,0
 17:48:58.531,-1.71218,-1.12864,-0.00139971,0,0,0
 17:48:58.531,-1.71286,-1.1289,-0.00141571,0,0,0
 17:48:58.532,-1.71288,-1.12908,-0.00138063,0,0,0
 17:48:58.532,-1.71229,-1.12862,-0.00141567,0,0,0
 17:48:58.532,-1.71231,-1.12812,-0.00142358,0,0,0
 17:48:58.533,-1.71292,-1.12763,-0.00141776,0,0,0
 17:48:58.533,-1.71238,-1.12719,-0.00143816,0,0,0
 17:48:58.534,-1.71245,-1.12681,-0.00145757,0,0,0
 17:48:58.535,-1.7126,-1.127,-0.00141861,0,0,0
 17:48:58.535,-1.71217,-1.12604,-0.00148073,0,0,0
 17:48:58.535,-1.71162,-1.12617,-0.00151046,0,0,0
 17:48:58.536,-1.71108,-1.12579,-0.00150485,0,0,0
 17:48:58.536,-1.71115,-1.12545,-0.00145968,0,0,0
 17:48:58.537,-1.7106,-1.12511,-0.00146828,0,0,0
 17:48:58.538,-1.71005,-1.12473,-0.00154235,0,0,0
 17:48:58.538,-1.70955,-1.12432,-0.00157577,0,0,0
 17:48:58.538,-1.70969,-1.124,-0.0016072,0,0,0
 17:48:58.539,-1.70984,-1.12486,-0.00157803,0,0,0
 17:48:58.539,-1.70999,-1.12512,-0.00163214,0,0,0
 17:48:58.540,-1.71012,-1.1254,-0.00168625,0,0,0
 17:48:58.541,-1.71022,-1.12621,-0.00167055,0,0,0
 17:48:58.541,-1.7103,-1.1264,-0.00162074,0,0,0
 17:48:58.541,-1.71093,-1.126,-0.00160167,0,0,0
 17:48:58.542,-1.71101,-1.1262,-0.00160435,0,0,0
 17:48:58.542,-1.71167,-1.12645,-0.00164685,0,0,0
 17:48:58.543,-1.71175,-1.12671,-0.00162359,0,0,0
 17:48:58.544,-1.71244,-1.12747,-0.00154228,0,0,0
 17:48:58.544,-1.71257,-1.12817,-0.00150061,0,0,0
 17:48:58.545,-1.71326,-1.12888,-0.00145946,0,0,0
 17:48:58.545,-1.71338,-1.12965,-0.00143127,0,0,0
 17:48:58.545,-1.71349,-1.12988,-0.00148734,0,0,0
 17:48:58.546,-1.713,-1.13012,-0.00151714,0,0,0
 17:48:58.547,-1.7131,-1.13032,-0.00146723,0,0,0
 17:48:58.547,-1.71318,-1.13051,-0.00153666,0,0,0
 17:48:58.548,-1.71326,-1.13075,-0.00159272,0,0,0
 17:48:58.548,-1.71337,-1.13102,-0.00158198,0,0,0
 17:48:58.548,-1.71349,-1.13069,-0.00162764,0,0,0
 17:48:58.549,-1.71301,-1.1303,-0.00168716,0,0,0
 17:48:58.549,-1.71249,-1.12987,-0.00165425,0,0,0
 17:48:58.550,-1.71197,-1.13004,-0.00164439,0,0,0
 17:48:58.551,-1.71201,-1.13026,-0.00162204,0,0,0
 17:48:58.551,-1.71206,-1.1299,-0.00153717,0,0,0
 17:48:58.551,-1.71274,-1.12951,-0.00155677,0,0,0
 17:48:58.552,-1.71287,-1.12914,-0.00161444,0,0,0
 17:48:58.552,-1.71298,-1.12879,-0.00159351,0,0,0
 17:48:58.553,-1.71245,-1.12838,-0.00164034,0,0,0
 17:48:58.554,-1.71197,-1.12853,-0.00161543,0,0,0
 17:48:58.554,-1.71207,-1.12818,-0.00156832,0,0,0
 17:48:58.555,-1.71216,-1.12783,-0.00150908,0,0,0
 17:48:58.555,-1.71163,-1.12744,-0.00154301,0,0,0
 17:48:58.555,-1.71111,-1.12703,-0.00162907,0,0,0
 17:48:58.556,-1.71072,-1.1272,-0.00164187,0,0,0
 17:48:58.557,-1.7109,-1.12624,-0.00167555,0,0,0
 17:48:58.557,-1.71281,-1.12537,-0.0017095,0,0,0
 17:48:58.557,-1.71232,-1.12558,-0.00168407,0,0,0
 17:48:58.558,-1.71176,-1.12632,-0.0016827,0,0,0
 17:48:58.558,-1.71112,-1.12644,-0.00170038,0,0,0
 17:48:58.559,-1.7105,-1.12659,-0.00170469,0,0,0
 17:48:58.560,-1.7111,-1.12624,-0.0016985,0,0,0
 17:48:58.560,-1.7124,-1.12591,-0.00163584,0,0,0
 17:48:58.561,-1.71447,-1.12618,-0.00147219,0,0,0
 17:48:58.561,-1.71597,-1.12645,-0.00140043,0,0,0
 17:48:58.561,-1.71622,-1.12668,-0.00140999,0,0,0
 17:48:58.562,-1.71635,-1.12631,-0.00145295,0,0,0
 17:48:58.563,-1.71521,-1.12591,-0.00143196,0,0,0
 17:48:58.563,-1.71342,-1.1249,-0.00140449,0,0,0
 17:48:58.564,-1.71276,-1.12336,-0.0014209,0,0,0
 17:48:58.564,-1.71398,-1.12188,-0.00146013,0,0,0
 17:48:58.564,-1.71592,-1.12166,-0.00146142,0,0,0
 17:48:58.565,-1.71789,-1.12212,-0.0013655,0,0,0
 17:48:58.565,-1.71981,-1.12319,-0.00131927,0,0,0
 17:48:58.566,-1.71991,-1.12479,-0.00125814,0,0,0
 17:48:58.567,-1.71932,-1.12626,-0.0011863,0,0,0
 17:48:58.567,-1.71745,-1.127,-0.00121477,0,0,0
 17:48:58.567,-1.71555,-1.12705,-0.00130049,0,0,0
 17:48:58.568,-1.71485,-1.12715,-0.00130535,0,0,0
 17:48:58.568,-1.7148,-1.12734,-0.00130872,0,0,0
 17:48:58.569,-1.71483,-1.12696,-0.00135397,0,0,0
 17:48:58.570,-1.71666,-1.12656,-0.00135795,0,0,0
 17:48:58.570,-1.718,-1.1268,-0.00127617,0,0,0
 17:48:58.571,-1.71815,-1.12703,-0.00122187,0,0,0
 17:48:58.571,-1.71765,-1.1267,-0.00126588,0,0,0
 17:48:58.571,-1.71707,-1.12579,-0.00127646,0,0,0
 17:48:58.572,-1.71583,-1.12482,-0.00127575,0,0,0
 17:48:58.573,-1.7146,-1.12383,-0.00134083,0,0,0
 17:48:58.573,-1.71463,-1.12403,-0.00136885,0,0,0
 17:48:58.574,-1.71584,-1.12371,-0.00141297,0,0,0
 17:48:58.574,-1.71711,-1.12404,-0.00151791,0,0,0
 17:48:58.574,-1.71901,-1.12442,-0.00152939,0,0,0
 17:48:58.575,-1.71973,-1.12535,-0.00144405,0,0,0
 17:48:58.576,-1.72038,-1.12571,-0.00132638,0,0,0
 17:48:58.576,-1.71977,-1.12606,-0.00126421,0,0,0
 17:48:58.577,-1.7191,-1.12629,-0.0013098,0,0,0
 17:48:58.577,-1.71841,-1.12704,-0.00129863,0,0,0
 17:48:58.577,-1.71831,-1.12835,-0.00116468,0,0,0
 17:48:58.578,-1.71885,-1.12857,-0.00111771,0,0,0
 17:48:58.579,-1.71944,-1.12881,-0.0011617,0,0,0
 17:48:58.579,-1.72008,-1.12964,-0.0011344,0,0,0
 17:48:58.580,-1.72071,-1.13047,-0.00108103,0,0,0
 17:48:58.580,-1.72071,-1.13066,-0.00104709,0,0,0
 17:48:58.581,-1.72066,-1.12966,-0.00100934,0,0,0
 17:48:58.581,-1.72,-1.12872,-0.000958923,0,0,0
 17:48:58.581,-1.71938,-1.12777,-0.000921306,0,0,0
 17:48:58.582,-1.71873,-1.12735,-0.000893841,0,0,0
 17:48:58.583,-1.7187,-1.12646,-0.0010153,0,0,0
 17:48:58.583,-1.71869,-1.12673,-0.0010744,0,0,0
 17:48:58.584,-1.71873,-1.1264,-0.00105674,0,0,0
 17:48:58.584,-1.71935,-1.12608,-0.00101303,0,0,0
 17:48:58.585,-1.71939,-1.12579,-0.00106225,0,0,0
 17:48:58.585,-1.71884,-1.12549,-0.00120415,0,0,0
 17:48:58.586,-1.71823,-1.12513,-0.001359,0,0,0
 17:48:58.586,-1.71705,-1.12532,-0.00135078,0,0,0
 17:48:58.587,-1.71649,-1.1255,-0.00132851,0,0,0
 17:48:58.587,-1.71658,-1.12576,-0.00139762,0,0,0
 17:48:58.587,-1.71667,-1.12657,-0.00144854,0,0,0
 17:48:58.588,-1.71679,-1.12679,-0.00151577,0,0,0
 17:48:58.589,-1.71688,-1.12639,-0.00159985,0,0,0
 17:48:58.589,-1.71698,-1.12715,-0.00155683,0,0,0
 17:48:58.590,-1.71707,-1.12733,-0.00149223,0,0,0
 17:48:58.590,-1.7171,-1.12694,-0.00155234,0,0,0
 17:48:58.590,-1.71706,-1.12715,-0.00159589,0,0,0
 17:48:58.591,-1.71708,-1.12675,-0.00161544,0,0,0
 17:48:58.592,-1.71714,-1.12632,-0.001686,0,0,0
 17:48:58.592,-1.71724,-1.12653,-0.00175201,0,0,0
 17:48:58.593,-1.71735,-1.12684,-0.00176541,0,0,0
 17:48:58.593,-1.71857,-1.12711,-0.00175298,0,0,0
 17:48:58.594,-1.7192,-1.12678,-0.00174478,0,0,0
 17:48:58.594,-1.71979,-1.12702,-0.00169422,0,0,0
 17:48:58.595,-1.72039,-1.12722,-0.00160421,0,0,0
 17:48:58.595,-1.72041,-1.1274,-0.00144834,0,0,0
 17:48:58.596,-1.72041,-1.12758,-0.00142488,0,0,0
 17:48:58.596,-1.72038,-1.12779,-0.00142901,0,0,0
 17:48:58.597,-1.72034,-1.12743,-0.00141102,0,0,0
 17:48:58.597,-1.72031,-1.12761,-0.00137569,0,0,0
 17:48:58.597,-1.72037,-1.12782,-0.00137828,0,0,0
 17:48:58.598,-1.72047,-1.12807,-0.00136655,0,0,0
 17:48:58.599,-1.72054,-1.12819,-0.00128946,0,0,0
 17:48:58.599,-1.72058,-1.12831,-0.00121363,0,0,0
 17:48:58.600,-1.72053,-1.12904,-0.00120189,0,0,0
 17:48:58.600,-1.71994,-1.12984,-0.0012036,0,0,0
 17:48:58.600,-1.71938,-1.13008,-0.00123467,0,0,0
 17:48:58.601,-1.71934,-1.13021,-0.0012805,0,0,0
 17:48:58.602,-1.71931,-1.13039,-0.00129954,0,0,0
 17:48:58.602,-1.71933,-1.13006,-0.00137354,0,0,0
 17:48:58.603,-1.71996,-1.12969,-0.00148533,0,0,0
 17:48:58.603,-1.71996,-1.12924,-0.00151895,0,0,0
 17:48:58.604,-1.71939,-1.12877,-0.00152604,0,0,0
 17:48:58.604,-1.71946,-1.12834,-0.00150494,0,0,0
 17:48:58.605,-1.71945,-1.12791,-0.00144685,0,0,0
 17:48:58.605,-1.71939,-1.12693,-0.00146015,0,0,0
 17:48:58.606,-1.71883,-1.1266,-0.00151995,0,0,0
 17:48:58.606,-1.71888,-1.12633,-0.00155286,0,0,0
 17:48:58.607,-1.71834,-1.12607,-0.00150706,0,0,0
 17:48:58.607,-1.71894,-1.12576,-0.00144804,0,0,0
 17:48:58.608,-1.71894,-1.126,-0.00145129,0,0,0
 17:48:58.608,-1.71957,-1.12631,-0.00150635,0,0,0
 17:48:58.609,-1.7196,-1.12721,-0.00153114,0,0,0
 17:48:58.609,-1.71901,-1.12801,-0.00150406,0,0,0
 17:48:58.610,-1.719,-1.12873,-0.0014767,0,0,0
 17:48:58.610,-1.71897,-1.12832,-0.0014324,0,0,0
 17:48:58.611,-1.71898,-1.12791,-0.00136145,0,0,0
 17:48:58.611,-1.71844,-1.12802,-0.00133884,0,0,0
 17:48:58.612,-1.71905,-1.12936,-0.00129523,0,0,0
 17:48:58.612,-1.71911,-1.12962,-0.001339,0,0,0
 17:48:58.613,-1.71915,-1.13044,-0.00131299,0,0,0
 17:48:58.613,-1.71912,-1.13125,-0.00120977,0,0,0
 17:48:58.613,-1.71845,-1.1314,-0.00119122,0,0,0
 17:48:58.614,-1.71785,-1.13154,-0.00125043,0,0,0
 17:48:58.615,-1.71725,-1.13108,-0.00128724,0,0,0
 17:48:58.615,-1.71672,-1.1306,-0.0013087,0,0,0
 17:48:58.616,-1.71676,-1.13076,-0.00131329,0,0,0
 17:48:58.616,-1.71736,-1.13102,-0.00137189,0,0,0
 17:48:58.617,-1.71744,-1.1307,-0.00139304,0,0,0
 17:48:58.617,-1.71808,-1.13093,-0.00129137,0,0,0
 17:48:58.618,-1.71873,-1.13107,-0.0012685,0,0,0
 17:48:58.618,-1.71821,-1.1312,-0.00132503,0,0,0
 17:48:58.619,-1.71765,-1.13076,-0.00132089,0,0,0
 17:48:58.619,-1.71707,-1.13087,-0.00123368,0,0,0
 17:48:58.620,-1.71654,-1.13098,-0.00107963,0,0,0
 17:48:58.620,-1.71659,-1.13056,-0.00100863,0,0,0
 17:48:58.621,-1.71726,-1.13016,-0.00101585,0,0,0
 17:48:58.621,-1.71734,-1.13088,-0.000988756,0,0,0
 17:48:58.622,-1.71743,-1.13099,-0.000965988,0,0,0
 17:48:58.622,-1.71752,-1.13111,-0.000930068,0,0,0
 17:48:58.623,-1.71756,-1.13129,-0.000975083,0,0,0
 17:48:58.623,-1.71758,-1.13147,-0.000967669,0,0,0
 17:48:58.624,-1.71702,-1.13217,-0.0009171,0,0,0
 17:48:58.624,-1.71649,-1.13236,-0.000949323,0,0,0
 17:48:58.625,-1.71594,-1.13249,-0.000995202,0,0,0
 17:48:58.625,-1.71606,-1.13261,-0.00103831,0,0,0
 17:48:58.626,-1.71619,-1.13273,-0.0010808,0,0,0
 17:48:58.626,-1.7163,-1.13346,-0.00107958,0,0,0
 17:48:58.627,-1.71642,-1.13361,-0.00110828,0,0,0
 17:48:58.627,-1.71653,-1.13377,-0.0010848,0,0,0
 17:48:58.628,-1.71659,-1.13331,-0.00102736,0,0,0
 17:48:58.628,-1.71663,-1.13279,-0.000956957,0,0,0
 17:48:58.629,-1.71608,-1.13284,-0.000909587,0,0,0
 17:48:58.629,-1.71551,-1.13293,-0.000942455,0,0,0
 17:48:58.629,-1.71553,-1.13307,-0.000961778,0,0,0
 17:48:58.630,-1.71615,-1.13322,-0.000954066,0,0,0
 17:48:58.631,-1.71562,-1.13335,-0.00094634,0,0,0
 17:48:58.631,-1.71563,-1.13292,-0.000970094,0,0,0
 17:48:58.632,-1.71563,-1.1325,-0.00100682,0,0,0
 17:48:58.632,-1.71563,-1.13262,-0.0010387,0,0,0
 17:48:58.633,-1.71566,-1.13215,-0.000994733,0,0,0
 17:48:58.633,-1.71508,-1.13115,-0.00100852,0,0,0
 17:48:58.634,-1.71512,-1.13074,-0.000978139,0,0,0
 17:48:58.634,-1.71521,-1.13035,-0.0008671,0,0,0
 17:48:58.635,-1.71532,-1.13108,-0.000826617,0,0,0
 17:48:58.635,-1.71536,-1.13122,-0.000831578,0,0,0
 17:48:58.636,-1.71479,-1.13139,-0.000811265,0,0,0
 17:48:58.638,-1.71426,-1.13154,-0.000922497,0,0,0
 17:48:58.638,-1.71374,-1.13168,-0.00104558,0,0,0
 17:48:58.638,-1.71435,-1.13128,-0.00114571,0,0,0
 17:48:58.638,-1.71437,-1.13089,-0.00117991,0,0,0
 17:48:58.638,-1.715,-1.12991,-0.0011508,0,0,0
 17:48:58.639,-1.71561,-1.13005,-0.00112707,0,0,0
 17:48:58.639,-1.71569,-1.13018,-0.00123455,0,0,0
 17:48:58.640,-1.71579,-1.12975,-0.00133155,0,0,0
 17:48:58.640,-1.71583,-1.12935,-0.00132445,0,0,0
 17:48:58.641,-1.71587,-1.12895,-0.00131742,0,0,0
 17:48:58.641,-1.71533,-1.12857,-0.00138935,0,0,0
 17:48:58.642,-1.71482,-1.12869,-0.00136402,0,0,0
 17:48:58.642,-1.71374,-1.1288,-0.00133893,0,0,0
 17:48:58.643,-1.71381,-1.12895,-0.00126159,0,0,0
 17:48:58.643,-1.71393,-1.12864,-0.00125364,0,0,0
 17:48:58.644,-1.71405,-1.12833,-0.00124578,0,0,0
 17:48:58.644,-1.71417,-1.12803,-0.00123803,0,0,0
 17:48:58.645,-1.71431,-1.12821,-0.00118589,0,0,0
 17:48:58.645,-1.71446,-1.12845,-0.00110794,0,0,0
 17:48:58.646,-1.71461,-1.12869,-0.00103077,0,0,0
 17:48:58.646,-1.71532,-1.12892,-0.000954385,0,0,0
 17:48:58.647,-1.71538,-1.12908,-0.00101213,0,0,0
 17:48:58.647,-1.71542,-1.12928,-0.00108328,0,0,0
 17:48:58.648,-1.71545,-1.12947,-0.00115372,0,0,0
 17:48:58.648,-1.71548,-1.12966,-0.00122346,0,0,0
 17:48:58.649,-1.71551,-1.12985,-0.00129252,0,0,0
 17:48:58.649,-1.71554,-1.13004,-0.00136089,0,0,0
 17:48:58.650,-1.71557,-1.13022,-0.00142859,0,0,0
 17:48:58.650,-1.71563,-1.12928,-0.001424,0,0,0
 17:48:58.651,-1.71569,-1.12835,-0.00141947,0,0,0
 17:48:58.651,-1.71575,-1.12743,-0.00141499,0,0,0
 17:48:58.652,-1.71581,-1.12652,-0.00141057,0,0,0
 17:48:58.652,-1.71578,-1.1267,-0.00134713,0,0,0
 17:48:58.653,-1.71576,-1.12688,-0.00128432,0,0,0
 17:48:58.653,-1.71573,-1.12706,-0.00122212,0,0,0
 17:48:58.654,-1.71571,-1.12724,-0.00116055,0,0,0
 17:48:58.654,-1.71569,-1.12742,-0.00109958,0,0,0
 17:48:58.655,-1.71567,-1.12759,-0.00103921,0,0,0
 17:48:58.655,-1.71565,-1.12776,-0.000979449,0,0,0
 17:48:58.656,-1.71563,-1.12794,-0.000920275,0,0,0
 17:48:58.656,-1.71561,-1.12811,-0.000861686,0,0,0
 17:48:58.657,-1.71559,-1.12828,-0.000803678,0,0,0
 17:48:58.657,-1.71558,-1.12844,-0.000746244,0,0,0
 17:48:58.658,-1.71556,-1.12861,-0.000689379,0,0,0
 17:48:58.658,-1.71555,-1.12877,-0.000633076,0,0,0
 17:48:58.659,-1.71553,-1.12894,-0.000577331,0,0,0
 17:48:58.659,-1.71552,-1.1291,-0.000522138,0,0,0
 17:48:58.660,-1.7155,-1.12926,-0.000467492,0,0,0
 17:48:58.660,-1.71549,-1.12942,-0.000413386,0,0,0
 17:48:58.661,-1.71548,-1.12957,-0.000359816,0,0,0
 17:48:58.661,-1.71547,-1.12973,-0.000306777,0,0,0
 17:48:58.661,-1.71546,-1.12988,-0.000254262,0,0,0
 17:48:58.662,-1.71545,-1.13004,-0.000202268,0,0,0
 17:48:58.663,-1.71544,-1.13019,-0.000150788,0,0,0
 17:48:58.663,-1.71543,-1.13034,-9.98176e-05,0,0,0
 17:48:58.664,-1.71542,-1.13049,-4.9352e-05,0,0,0
 17:48:58.664,-1.71542,-1.13064,6.14057e-07,0,0,0
 17:48:58.665,-1.71541,-1.13078,5.00854e-05,0,0,0
 17:48:58.665,-1.7154,-1.13093,9.9067e-05,0,0,0
 17:48:58.666,-1.7154,-1.13107,0.000147564,0,0,0
 17:48:58.666,-1.71539,-1.13121,0.00019558,0,0,0
 17:48:58.667,-1.71539,-1.13136,0.000243122,0,0,0
 17:48:58.667,-1.71539,-1.1315,0.000290192,0,0,0
 17:48:58.668,-1.71538,-1.13164,0.000336797,0,0,0
 17:48:58.669,-1.71538,-1.13177,0.00038294,0,0,0
 17:48:58.669,-1.71538,-1.13191,0.000428627,0,0,0
 17:48:58.669,-1.71538,-1.13204,0.000473861,0,0,0
 17:48:58.670,-1.71537,-1.13218,0.000518647,0,0,0
 17:48:58.670,-1.71537,-1.13231,0.00056299,0,0,0
 17:48:58.671,-1.71537,-1.13244,0.000606894,0,0,0
 17:48:58.671,-1.71595,-1.13257,0.000650365,0,0,0
 17:48:58.672,-1.71605,-1.13219,0.000613268,0,0,0
 17:48:58.672,-1.71667,-1.13185,0.000588289,0,0,0
 17:48:58.673,-1.71668,-1.13203,0.000566741,0,0,0
 17:48:58.673,-1.71609,-1.13212,0.000571063,0,0,0
 17:48:58.674,-1.71611,-1.13219,0.000681992,0,0,0
 17:48:58.674,-1.71667,-1.13224,0.000752371,0,0,0
 17:48:58.675,-1.71733,-1.13237,0.000784659,0,0,0
 17:48:58.676,-1.71801,-1.13256,0.000778371,0,0,0
 17:48:58.676,-1.7181,-1.13214,0.000728181,0,0,0
 17:48:58.676,-1.71869,-1.13176,0.000728891,0,0,0
 17:48:58.677,-1.71867,-1.13199,0.00074603,0,0,0
 17:48:58.677,-1.71805,-1.1316,0.000758301,0,0,0
 17:48:58.678,-1.71743,-1.13176,0.000761478,0,0,0
 17:48:58.678,-1.71745,-1.13197,0.000713509,0,0,0
 17:48:58.679,-1.71755,-1.13215,0.00061503,0,0,0
 17:48:58.679,-1.71769,-1.13229,0.000583393,0,0,0
 17:48:58.680,-1.71779,-1.13243,0.000603689,0,0,0
 17:48:58.680,-1.71781,-1.13267,0.000660954,0,0,0
 17:48:58.681,-1.71783,-1.13348,0.000669437,0,0,0
 17:48:58.682,-1.71846,-1.13421,0.000599871,0,0,0
 17:48:58.682,-1.7179,-1.13429,0.000552053,0,0,0
 17:48:58.682,-1.71729,-1.13379,0.000525549,0,0,0
 17:48:58.683,-1.71732,-1.13272,0.000470335,0,0,0
 17:48:58.683,-1.71738,-1.13168,0.000429567,0,0,0
 17:48:58.684,-1.71745,-1.1307,0.000402385,0,0,0
 17:48:58.684,-1.71811,-1.13029,0.000380043,0,0,0
 17:48:58.685,-1.71881,-1.12993,0.000371697,0,0,0
 17:48:58.685,-1.71948,-1.13069,0.000318547,0,0,0
 17:48:58.686,-1.71958,-1.13032,0.000179067,0,0,0
 17:48:58.686,-1.72019,-1.13054,9.61134e-05,0,0,0
 17:48:58.687,-1.72023,-1.13073,5.3353e-05,0,0,0
 17:48:58.687,-1.72033,-1.13089,5.17468e-05,0,0,0
 17:48:58.688,-1.72039,-1.13102,7.58013e-05,0,0,0
 17:48:58.688,-1.72042,-1.13061,0.000147399,0,0,0
 17:48:58.689,-1.72044,-1.13023,0.00019204,0,0,0
 17:48:58.689,-1.72051,-1.13042,0.000202338,0,0,0
 17:48:58.690,-1.72053,-1.13053,0.000158864,0,0,0
 17:48:58.690,-1.71998,-1.13121,0.000133419,0,0,0
 17:48:58.691,-1.71941,-1.13135,0.000156016,0,0,0
 17:48:58.691,-1.71879,-1.13147,0.000151034,0,0,0
 17:48:58.692,-1.71936,-1.13166,8.00981e-05,0,0,0
 17:48:58.692,-1.7194,-1.13188,7.66542e-05,0,0,0
 17:48:58.693,-1.71942,-1.13147,0.000108172,0,0,0
 17:48:58.693,-1.71952,-1.13102,0.000102438,0,0,0
 17:48:58.694,-1.71909,-1.13056,3.16769e-05,0,0,0
 17:48:58.694,-1.71917,-1.13013,-1.11815e-06,0,0,0
 17:48:58.695,-1.71918,-1.12973,3.09292e-05,0,0,0
 17:48:58.695,-1.71922,-1.12992,8.04727e-05,0,0,0
 17:48:58.696,-1.71929,-1.1296,6.02189e-05,0,0,0
 17:48:58.696,-1.71936,-1.1293,9.26218e-05,0,0,0
 17:48:58.697,-1.71885,-1.12836,5.48937e-05,0,0,0
 17:48:58.698,-1.71889,-1.12795,-4.49795e-05,0,0,0
 17:48:58.698,-1.71889,-1.12757,-0.000131749,0,0,0
 17:48:58.698,-1.71892,-1.12777,-0.000147377,0,0,0
 17:48:58.699,-1.71841,-1.12797,-9.62767e-05,0,0,0
 17:48:58.699,-1.71849,-1.12816,-5.84628e-05,0,0,0
 17:48:58.700,-1.71855,-1.1284,-8.73977e-05,0,0,0
 17:48:58.701,-1.71864,-1.1287,-0.000168289,0,0,0
 17:48:58.701,-1.71807,-1.12842,-0.000241259,0,0,0
 17:48:58.702,-1.71747,-1.12812,-0.000248974,0,0,0
 17:48:58.702,-1.71698,-1.12837,-0.000223307,0,0,0
 17:48:58.702,-1.71706,-1.12862,-0.000250382,0,0,0
 17:48:58.703,-1.71714,-1.1283,-0.000268419,0,0,0
 17:48:58.703,-1.71721,-1.12853,-0.000216612,0,0,0
 17:48:58.704,-1.71788,-1.12822,-0.000300516,0,0,0
 17:48:58.704,-1.718,-1.12846,-0.000405057,0,0,0
 17:48:58.705,-1.71867,-1.12865,-0.000469377,0,0,0
 17:48:58.705,-1.7187,-1.12884,-0.000547461,0,0,0
 17:48:58.706,-1.71928,-1.12906,-0.000600209,0,0,0
 17:48:58.706,-1.71925,-1.12987,-0.00057031,0,0,0
 17:48:58.707,-1.71923,-1.13008,-0.000518657,0,0,0
 17:48:58.708,-1.71983,-1.13025,-0.000439758,0,0,0
 17:48:58.708,-1.71986,-1.13039,-0.000479252,0,0,0
 17:48:58.708,-1.71928,-1.13059,-0.000467159,0,0,0
 17:48:58.709,-1.71871,-1.13025,-0.000420324,0,0,0
 17:48:58.709,-1.71867,-1.13044,-0.000462666,0,0,0
 17:48:58.710,-1.7186,-1.13056,-0.000532076,0,0,0
 17:48:58.711,-1.71862,-1.13009,-0.000550455,0,0,0
 17:48:58.711,-1.7187,-1.13018,-0.000589443,0,0,0
 17:48:58.711,-1.71817,-1.13033,-0.000615678,0,0,0
 17:48:58.712,-1.71823,-1.13058,-0.000642479,0,0,0
 17:48:58.712,-1.71827,-1.13081,-0.000669287,0,0,0
 17:48:58.713,-1.71767,-1.13041,-0.000688149,0,0,0
 17:48:58.714,-1.71765,-1.13057,-0.000663239,0,0,0
 17:48:58.714,-1.71707,-1.13019,-0.000655555,0,0,0
 17:48:58.714,-1.71649,-1.12986,-0.000542437,0,0,0
 17:48:58.715,-1.71591,-1.13008,-0.000504767,0,0,0
 17:48:58.715,-1.71651,-1.13022,-0.000571887,0,0,0
 17:48:58.716,-1.71717,-1.13036,-0.000584637,0,0,0
 17:48:58.717,-1.71781,-1.13053,-0.000518176,0,0,0
 17:48:58.717,-1.71785,-1.13015,-0.000496835,0,0,0
 17:48:58.718,-1.71791,-1.12975,-0.000553878,0,0,0
 17:48:58.718,-1.71799,-1.12993,-0.000592626,0,0,0
 17:48:58.718,-1.71799,-1.1301,-0.000632705,0,0,0
 17:48:58.719,-1.71795,-1.12916,-0.00068177,0,0,0
 17:48:58.719,-1.71741,-1.12932,-0.0007074,0,0,0
 17:48:58.720,-1.71693,-1.13003,-0.000688108,0,0,0
 17:48:58.720,-1.71702,-1.13016,-0.000660091,0,0,0
 17:48:58.721,-1.71762,-1.13035,-0.000647335,0,0,0
 17:48:58.721,-1.71713,-1.1306,-0.000620155,0,0,0
 17:48:58.722,-1.71723,-1.13027,-0.000649413,0,0,0
 17:48:58.722,-1.7173,-1.12934,-0.000683247,0,0,0
 17:48:58.723,-1.71735,-1.12957,-0.000603205,0,0,0
 17:48:58.724,-1.71678,-1.1298,-0.000551581,0,0,0
 17:48:58.724,-1.71624,-1.12946,-0.000622462,0,0,0
 17:48:58.724,-1.71632,-1.12854,-0.000734736,0,0,0
 17:48:58.725,-1.71639,-1.12816,-0.000802456,0,0,0
 17:48:58.725,-1.71646,-1.12782,-0.000804679,0,0,0
 17:48:58.726,-1.71601,-1.12812,-0.000840541,0,0,0
 17:48:58.727,-1.71555,-1.12782,-0.000867392,0,0,0
 17:48:58.727,-1.71561,-1.12806,-0.000825898,0,0,0
 17:48:58.727,-1.71564,-1.12825,-0.000811658,0,0,0
 17:48:58.728,-1.71569,-1.12783,-0.00091965,0,0,0
 17:48:58.728,-1.71577,-1.1269,-0.000991235,0,0,0
 17:48:58.729,-1.71649,-1.12603,-0.000968197,0,0,0
 17:48:58.730,-1.7166,-1.12571,-0.000968333,0,0,0
 17:48:58.730,-1.71609,-1.1254,-0.00102235,0,0,0
 17:48:58.730,-1.71621,-1.12573,-0.00103139,0,0,0
 17:48:58.731,-1.71578,-1.12604,-0.00102647,0,0,0
 17:48:58.731,-1.71531,-1.12629,-0.00099673,0,0,0
 17:48:58.732,-1.71482,-1.12592,-0.00105083,0,0,0
 17:48:58.733,-1.71491,-1.12558,-0.00113037,0,0,0
 17:48:58.733,-1.7144,-1.12528,-0.00114459,0,0,0
 17:48:58.734,-1.71328,-1.12552,-0.00110293,0,0,0
 17:48:58.734,-1.71334,-1.12572,-0.00111406,0,0,0
 17:48:58.734,-1.71344,-1.12647,-0.00108015,0,0,0
 17:48:58.735,-1.71296,-1.12666,-0.00102471,0,0,0
 17:48:58.735,-1.71306,-1.12694,-0.00103528,0,0,0
 17:48:58.736,-1.71313,-1.12721,-0.00102087,0,0,0
 17:48:58.737,-1.7126,-1.1274,-0.000966765,0,0,0
 17:48:58.737,-1.71204,-1.12754,-0.000953656,0,0,0
 17:48:58.737,-1.71148,-1.12771,-0.000927389,0,0,0
 17:48:58.738,-1.71096,-1.12737,-0.00087799,0,0,0
 17:48:58.738,-1.7105,-1.12764,-0.000876559,0,0,0
 17:48:58.739,-1.71061,-1.12787,-0.000887949,0,0,0
 17:48:58.740,-1.71068,-1.12801,-0.000926749,0,0,0
 17:48:58.740,-1.71073,-1.12879,-0.000909865,0,0,0
 17:48:58.741,-1.7102,-1.12901,-0.000817905,0,0,0
 17:48:58.741,-1.71025,-1.12918,-0.000831346,0,0,0
 17:48:58.741,-1.71091,-1.12874,-0.000899827,0,0,0
 17:48:58.742,-1.71041,-1.12829,-0.000941382,0,0,0
 17:48:58.743,-1.71047,-1.12784,-0.000943906,0,0,0
 17:48:58.743,-1.71052,-1.1274,-0.000986071,0,0,0
 17:48:58.744,-1.7106,-1.12706,-0.00105398,0,0,0
 17:48:58.744,-1.7101,-1.1273,-0.00106527,0,0,0
 17:48:58.744,-1.71014,-1.12688,-0.00104148,0,0,0
 17:48:58.745,-1.71024,-1.12703,-0.00106468,0,0,0
 17:48:58.746,-1.71035,-1.12667,-0.00110478,0,0,0
 17:48:58.746,-1.71103,-1.12571,-0.00113538,0,0,0
 17:48:58.747,-1.71172,-1.12591,-0.00111822,0,0,0
 17:48:58.747,-1.71237,-1.12611,-0.00107616,0,0,0
 17:48:58.747,-1.71299,-1.1263,-0.00104799,0,0,0
 17:48:58.748,-1.71302,-1.12656,-0.00107298,0,0,0
 17:48:58.749,-1.71307,-1.1274,-0.00106739,0,0,0
 17:48:58.749,-1.71312,-1.12873,-0.000965375,0,0,0
 17:48:58.750,-1.71318,-1.12944,-0.000881253,0,0,0
 17:48:58.750,-1.71262,-1.13013,-0.000851423,0,0,0
 17:48:58.750,-1.71265,-1.13021,-0.00086446,0,0,0
 17:48:58.751,-1.71272,-1.13025,-0.000889437,0,0,0
 17:48:58.751,-1.71279,-1.13029,-0.00088789,0,0,0
 17:48:58.752,-1.71284,-1.13038,-0.000861112,0,0,0
 17:48:58.753,-1.71294,-1.13054,-0.00084627,0,0,0
 17:48:58.753,-1.71305,-1.13073,-0.000870438,0,0,0
 17:48:58.754,-1.71308,-1.1309,-0.000764693,0,0,0
 17:48:58.754,-1.71366,-1.13045,-0.000703962,0,0,0
 17:48:58.754,-1.7131,-1.13001,-0.00076136,0,0,0
 17:48:58.755,-1.71254,-1.12957,-0.000818246,0,0,0
 17:48:58.756,-1.71203,-1.12911,-0.000847524,0,0,0
 17:48:58.756,-1.71211,-1.12863,-0.000823683,0,0,0
