Ê±¼ä,pitch,roll,yaw,gyroX_bias,gyroY_bias,gyroZ_bias,pitch,roll,yaw
 17:48:57.538,-1.83444,-1.14699,0.0183625,0,0,0,-1.83444,-1.14699,0.0183625
 17:48:57.539,-1.83281,-1.14699,0.0182674,0,0,0,-1.83281,-1.14699,0.0182674
 17:48:57.542,-1.83227,-1.1477,0.0181623,0,0,0,-1.83227,-1.1477,0.0181623
 17:48:57.543,-1.83172,-1.14709,0.0180204,0,0,0,-1.83172,-1.14709,0.0180204
 17:48:57.543,-1.83057,-1.14652,0.017904,0,0,0,-1.83057,-1.14652,0.017904
 17:48:57.543,-1.82944,-1.14596,0.017841,0,0,0,-1.82944,-1.14596,0.017841
 17:48:57.545,-1.82835,-1.14591,0.0178636,0,0,0,-1.82835,-1.14591,0.0178636
 17:48:57.546,-1.82778,-1.14577,0.0177925,0,0,0,-1.82778,-1.14577,0.0177925
 17:48:57.546,-1.82673,-1.14529,0.0176382,0,0,0,-1.82673,-1.14529,0.0176382
 17:48:57.547,-1.82563,-1.14534,0.0175538,0,0,0,-1.82563,-1.14534,0.0175538
 17:48:57.547,-1.82453,-1.14535,0.0175357,0,0,0,-1.82453,-1.14535,0.0175357
 17:48:57.548,-1.8229,-1.14535,0.0174127,0,0,0,-1.8229,-1.14535,0.0174127
 17:48:57.548,-1.82186,-1.14536,0.01725,0,0,0,-1.82186,-1.14536,0.01725
 17:48:57.549,-1.82082,-1.14476,0.017148,0,0,0,-1.82082,-1.14476,0.017148
 17:48:57.549,-1.82034,-1.14365,0.01708,0,0,0,-1.82034,-1.14365,0.01708
 17:48:57.550,-1.81935,-1.14316,0.0169922,0,0,0,-1.81935,-1.14316,0.0169922
 17:48:57.550,-1.81843,-1.14325,0.0168981,0,0,0,-1.81843,-1.14325,0.0168981
 17:48:57.551,-1.81746,-1.14391,0.0167415,0,0,0,-1.81746,-1.14391,0.0167415
 17:48:57.551,-1.8159,-1.14454,0.0165309,0,0,0,-1.8159,-1.14454,0.0165309
 17:48:57.552,-1.81439,-1.14571,0.016392,0,0,0,-1.81439,-1.14571,0.016392
 17:48:57.552,-1.81345,-1.14626,0.0163402,0,0,0,-1.81345,-1.14626,0.0163402
 17:48:57.553,-1.81246,-1.14735,0.0162785,0,0,0,-1.81246,-1.14735,0.0162785
 17:48:57.553,-1.8121,-1.14841,0.0161115,0,0,0,-1.8121,-1.14841,0.0161115
 17:48:57.554,-1.81179,-1.14835,0.0159355,0,0,0,-1.81179,-1.14835,0.0159355
 17:48:57.554,-1.81146,-1.14713,0.0157628,0,0,0,-1.81146,-1.14713,0.0157628
 17:48:57.555,-1.81059,-1.14591,0.0155911,0,0,0,-1.81059,-1.14591,0.0155911
 17:48:57.555,-1.81026,-1.14472,0.0154718,0,0,0,-1.81026,-1.14472,0.0154718
 17:48:57.556,-1.80988,-1.14415,0.0153963,0,0,0,-1.80988,-1.14415,0.0153963
 17:48:57.556,-1.80893,-1.14415,0.0152988,0,0,0,-1.80893,-1.14415,0.0152988
 17:48:57.557,-1.80802,-1.14413,0.0151758,0,0,0,-1.80802,-1.14413,0.0151758
 17:48:57.557,-1.80655,-1.1447,0.0150181,0,0,0,-1.80655,-1.1447,0.0150181
 17:48:57.558,-1.80512,-1.14589,0.0148522,0,0,0,-1.80512,-1.14589,0.0148522
 17:48:57.558,-1.80432,-1.1465,0.0146688,0,0,0,-1.80432,-1.1465,0.0146688
 17:48:57.559,-1.8041,-1.14649,0.0145731,0,0,0,-1.8041,-1.14649,0.0145731
 17:48:57.559,-1.80386,-1.14644,0.0145695,0,0,0,-1.80386,-1.14644,0.0145695
 17:48:57.560,-1.80302,-1.14581,0.0145344,0,0,0,-1.80302,-1.14581,0.0145344
 17:48:57.560,-1.80224,-1.14582,0.0143729,0,0,0,-1.80224,-1.14582,0.0143729
 17:48:57.561,-1.80148,-1.14527,0.0142595,0,0,0,-1.80148,-1.14527,0.0142595
 17:48:57.561,-1.8007,-1.14529,0.0142301,0,0,0,-1.8007,-1.14529,0.0142301
 17:48:57.562,-1.7999,-1.1453,0.0141864,0,0,0,-1.7999,-1.1453,0.0141864
 17:48:57.562,-1.79906,-1.14584,0.0140938,0,0,0,-1.79906,-1.14584,0.0140938
 17:48:57.563,-1.79828,-1.14636,0.0140025,0,0,0,-1.79828,-1.14636,0.0140025
 17:48:57.563,-1.79755,-1.14694,0.013846,0,0,0,-1.79755,-1.14694,0.013846
 17:48:57.564,-1.79681,-1.14759,0.0136883,0,0,0,-1.79681,-1.14759,0.0136883
 17:48:57.564,-1.79598,-1.14825,0.0135939,0,0,0,-1.79598,-1.14825,0.0135939
 17:48:57.565,-1.79518,-1.14829,0.0135083,0,0,0,-1.79518,-1.14829,0.0135083
 17:48:57.565,-1.79443,-1.14764,0.0133536,0,0,0,-1.79443,-1.14764,0.0133536
 17:48:57.566,-1.79372,-1.14697,0.0132924,0,0,0,-1.79372,-1.14697,0.0132924
 17:48:57.566,-1.79298,-1.14578,0.0132523,0,0,0,-1.79298,-1.14578,0.0132523
 17:48:57.567,-1.79161,-1.1446,0.0131181,0,0,0,-1.79161,-1.1446,0.0131181
 17:48:57.567,-1.7908,-1.14346,0.0128647,0,0,0,-1.7908,-1.14346,0.0128647
 17:48:57.568,-1.79005,-1.14233,0.0126659,0,0,0,-1.79005,-1.14233,0.0126659
 17:48:57.568,-1.78995,-1.14173,0.0126857,0,0,0,-1.78995,-1.14173,0.0126857
 17:48:57.569,-1.7899,-1.14181,0.0127377,0,0,0,-1.7899,-1.14181,0.0127377
 17:48:57.569,-1.78929,-1.14193,0.0125911,0,0,0,-1.78929,-1.14193,0.0125911
 17:48:57.570,-1.78921,-1.14201,0.0123905,0,0,0,-1.78921,-1.14201,0.0123905
 17:48:57.570,-1.78848,-1.14142,0.0122502,0,0,0,-1.78848,-1.14142,0.0122502
 17:48:57.571,-1.78837,-1.14087,0.0122299,0,0,0,-1.78837,-1.14087,0.0122299
 17:48:57.571,-1.78767,-1.14041,0.0121691,0,0,0,-1.78767,-1.14041,0.0121691
 17:48:57.572,-1.78693,-1.13997,0.0120411,0,0,0,-1.78693,-1.13997,0.0120411
 17:48:57.572,-1.78685,-1.13947,0.0118888,0,0,0,-1.78685,-1.13947,0.0118888
 17:48:57.573,-1.78684,-1.13955,0.0118626,0,0,0,-1.78684,-1.13955,0.0118626
 17:48:57.573,-1.78687,-1.13964,0.0118502,0,0,0,-1.78687,-1.13964,0.0118502
 17:48:57.574,-1.78622,-1.14026,0.011721,0,0,0,-1.78622,-1.14026,0.011721
 17:48:57.575,-1.78559,-1.14093,0.0116183,0,0,0,-1.78559,-1.14093,0.0116183
 17:48:57.575,-1.78438,-1.1422,0.0116386,0,0,0,-1.78438,-1.1422,0.0116386
 17:48:57.575,-1.78315,-1.14344,0.0116577,0,0,0,-1.78315,-1.14344,0.0116577
 17:48:57.576,-1.78253,-1.1434,0.0115226,0,0,0,-1.78253,-1.1434,0.0115226
 17:48:57.576,-1.78191,-1.14388,0.0114187,0,0,0,-1.78191,-1.14388,0.0114187
 17:48:57.577,-1.78128,-1.14381,0.0113493,0,0,0,-1.78128,-1.14381,0.0113493
 17:48:57.577,-1.78123,-1.14321,0.0112349,0,0,0,-1.78123,-1.14321,0.0112349
 17:48:57.578,-1.7812,-1.14267,0.0110951,0,0,0,-1.7812,-1.14267,0.0110951
 17:48:57.578,-1.7812,-1.14213,0.010943,0,0,0,-1.7812,-1.14213,0.010943
 17:48:57.579,-1.78061,-1.14155,0.0108303,0,0,0,-1.78061,-1.14155,0.0108303
 17:48:57.579,-1.77942,-1.14094,0.0107037,0,0,0,-1.77942,-1.14094,0.0107037
 17:48:57.580,-1.77881,-1.1398,0.0105593,0,0,0,-1.77881,-1.1398,0.0105593
 17:48:57.581,-1.77768,-1.13925,0.0104604,0,0,0,-1.77768,-1.13925,0.0104604
 17:48:57.581,-1.77714,-1.13871,0.0103754,0,0,0,-1.77714,-1.13871,0.0103754
 17:48:57.581,-1.77543,-1.13874,0.0103209,0,0,0,-1.77543,-1.13874,0.0103209
 17:48:57.582,-1.77429,-1.13875,0.0102265,0,0,0,-1.77429,-1.13875,0.0102265
 17:48:57.582,-1.77317,-1.13822,0.0100879,0,0,0,-1.77317,-1.13822,0.0100879
 17:48:57.583,-1.77268,-1.1383,0.010034,0,0,0,-1.77268,-1.1383,0.010034
 17:48:57.583,-1.77216,-1.1378,0.0100148,0,0,0,-1.77216,-1.1378,0.0100148
 17:48:57.584,-1.77167,-1.13785,0.0100007,0,0,0,-1.77167,-1.13785,0.0100007
 17:48:57.584,-1.77118,-1.13728,0.00983648,0,0,0,-1.77118,-1.13728,0.00983648
 17:48:57.585,-1.77067,-1.13676,0.00968483,0,0,0,-1.77067,-1.13676,0.00968483
 17:48:57.585,-1.77009,-1.13686,0.00960223,0,0,0,-1.77009,-1.13686,0.00960223
 17:48:57.586,-1.76955,-1.13697,0.00957324,0,0,0,-1.76955,-1.13697,0.00957324
 17:48:57.586,-1.76907,-1.13756,0.00955065,0,0,0,-1.76907,-1.13756,0.00955065
 17:48:57.587,-1.76865,-1.13811,0.00942341,0,0,0,-1.76865,-1.13811,0.00942341
 17:48:57.587,-1.76761,-1.13867,0.00922831,0,0,0,-1.76761,-1.13867,0.00922831
 17:48:57.588,-1.76712,-1.13875,0.00906715,0,0,0,-1.76712,-1.13875,0.00906715
 17:48:57.588,-1.76659,-1.13886,0.0089972,0,0,0,-1.76659,-1.13886,0.0089972
 17:48:57.589,-1.76666,-1.13834,0.0088969,0,0,0,-1.76666,-1.13834,0.0088969
 17:48:57.589,-1.76622,-1.1384,0.00885576,0,0,0,-1.76622,-1.1384,0.00885576
 17:48:57.590,-1.7664,-1.13789,0.00881127,0,0,0,-1.7664,-1.13789,0.00881127
 17:48:57.590,-1.76596,-1.13738,0.00872616,0,0,0,-1.76596,-1.13738,0.00872616
 17:48:57.591,-1.76549,-1.13743,0.00863162,0,0,0,-1.76549,-1.13743,0.00863162
 17:48:57.591,-1.76556,-1.13743,0.00854977,0,0,0,-1.76556,-1.13743,0.00854977
 17:48:57.592,-1.76508,-1.13802,0.00849918,0,0,0,-1.76508,-1.13802,0.00849918
 17:48:57.592,-1.76461,-1.13747,0.00840009,0,0,0,-1.76461,-1.13747,0.00840009
 17:48:57.593,-1.76472,-1.1375,0.00827932,0,0,0,-1.76472,-1.1375,0.00827932
 17:48:57.594,-1.76423,-1.13813,0.00817515,0,0,0,-1.76423,-1.13813,0.00817515
 17:48:57.594,-1.7638,-1.13879,0.00809844,0,0,0,-1.7638,-1.13879,0.00809844
 17:48:57.594,-1.76343,-1.13883,0.0080586,0,0,0,-1.76343,-1.13883,0.0080586
 17:48:57.595,-1.76307,-1.13942,0.00797039,0,0,0,-1.76307,-1.13942,0.00797039
 17:48:57.595,-1.76329,-1.13946,0.00783794,0,0,0,-1.76329,-1.13946,0.00783794
 17:48:57.596,-1.76353,-1.13951,0.00770583,0,0,0,-1.76353,-1.13951,0.00770583
 17:48:57.597,-1.76316,-1.13957,0.00755959,0,0,0,-1.76316,-1.13957,0.00755959
 17:48:57.597,-1.76269,-1.13961,0.0074244,0,0,0,-1.76269,-1.13961,0.0074244
 17:48:57.597,-1.76222,-1.13966,0.00732836,0,0,0,-1.76222,-1.13966,0.00732836
 17:48:57.598,-1.76178,-1.13913,0.0072022,0,0,0,-1.76178,-1.13913,0.0072022
 17:48:57.598,-1.76134,-1.13859,0.00706323,0,0,0,-1.76134,-1.13859,0.00706323
 17:48:57.599,-1.76092,-1.13752,0.00692013,0,0,0,-1.76092,-1.13752,0.00692013
 17:48:57.599,-1.76116,-1.13704,0.00679711,0,0,0,-1.76116,-1.13704,0.00679711
 17:48:57.600,-1.76146,-1.13652,0.00671546,0,0,0,-1.76146,-1.13652,0.00671546
 17:48:57.601,-1.76108,-1.13593,0.00669759,0,0,0,-1.76108,-1.13593,0.00669759
 17:48:57.601,-1.76008,-1.13537,0.00666527,0,0,0,-1.76008,-1.13537,0.00666527
 17:48:57.601,-1.75969,-1.13432,0.006563,0,0,0,-1.75969,-1.13432,0.006563
 17:48:57.602,-1.7593,-1.13388,0.00647895,0,0,0,-1.7593,-1.13388,0.00647895
 17:48:57.602,-1.75897,-1.13345,0.0063568,0,0,0,-1.75897,-1.13345,0.0063568
 17:48:57.603,-1.75864,-1.13297,0.00623479,0,0,0,-1.75864,-1.13297,0.00623479
 17:48:57.604,-1.75768,-1.13309,0.00615515,0,0,0,-1.75768,-1.13309,0.00615515
 17:48:57.604,-1.75729,-1.13328,0.00611439,0,0,0,-1.75729,-1.13328,0.00611439
 17:48:57.604,-1.75699,-1.13402,0.00602735,0,0,0,-1.75699,-1.13402,0.00602735
 17:48:57.605,-1.75664,-1.13471,0.00588657,0,0,0,-1.75664,-1.13471,0.00588657
 17:48:57.605,-1.75625,-1.1354,0.00578354,0,0,0,-1.75625,-1.1354,0.00578354
 17:48:57.606,-1.75586,-1.13494,0.00571114,0,0,0,-1.75586,-1.13494,0.00571114
 17:48:57.607,-1.75551,-1.13446,0.00566665,0,0,0,-1.75551,-1.13446,0.00566665
 17:48:57.607,-1.7552,-1.13459,0.00564066,0,0,0,-1.7552,-1.13459,0.00564066
 17:48:57.607,-1.75546,-1.13474,0.00560087,0,0,0,-1.75546,-1.13474,0.00560087
 17:48:57.608,-1.75453,-1.13487,0.00549425,0,0,0,-1.75453,-1.13487,0.00549425
 17:48:57.608,-1.75424,-1.13499,0.00545524,0,0,0,-1.75424,-1.13499,0.00545524
 17:48:57.609,-1.75395,-1.13449,0.00546482,0,0,0,-1.75395,-1.13449,0.00546482
 17:48:57.610,-1.75427,-1.1346,0.00542645,0,0,0,-1.75427,-1.1346,0.00542645
 17:48:57.610,-1.75395,-1.13416,0.00530282,0,0,0,-1.75395,-1.13416,0.00530282
 17:48:57.610,-1.753,-1.13372,0.00517753,0,0,0,-1.753,-1.13372,0.00517753
 17:48:57.611,-1.75265,-1.13385,0.00512347,0,0,0,-1.75265,-1.13385,0.00512347
 17:48:57.611,-1.75238,-1.13339,0.00500077,0,0,0,-1.75238,-1.13339,0.00500077
 17:48:57.612,-1.75151,-1.13292,0.00485103,0,0,0,-1.75151,-1.13292,0.00485103
 17:48:57.613,-1.75064,-1.1325,0.00476745,0,0,0,-1.75064,-1.1325,0.00476745
 17:48:57.613,-1.75036,-1.13154,0.00471947,0,0,0,-1.75036,-1.13154,0.00471947
 17:48:57.614,-1.74951,-1.1306,0.00469841,0,0,0,-1.74951,-1.1306,0.00469841
 17:48:57.614,-1.74923,-1.13076,0.00465941,0,0,0,-1.74923,-1.13076,0.00465941
 17:48:57.614,-1.74838,-1.13091,0.00454134,0,0,0,-1.74838,-1.13091,0.00454134
 17:48:57.615,-1.74813,-1.13054,0.00439245,0,0,0,-1.74813,-1.13054,0.00439245
 17:48:57.615,-1.74726,-1.13077,0.00426029,0,0,0,-1.74726,-1.13077,0.00426029
 17:48:57.616,-1.7464,-1.13094,0.00414119,0,0,0,-1.7464,-1.13094,0.00414119
 17:48:57.617,-1.74556,-1.13104,0.00408882,0,0,0,-1.74556,-1.13104,0.00408882
 17:48:57.617,-1.74479,-1.13057,0.00404654,0,0,0,-1.74479,-1.13057,0.00404654
 17:48:57.618,-1.74458,-1.13071,0.00394244,0,0,0,-1.74458,-1.13071,0.00394244
 17:48:57.618,-1.74439,-1.13148,0.00380312,0,0,0,-1.74439,-1.13148,0.00380312
 17:48:57.618,-1.7447,-1.13223,0.00367465,0,0,0,-1.7447,-1.13223,0.00367465
 17:48:57.619,-1.74439,-1.13236,0.00358046,0,0,0,-1.74439,-1.13236,0.00358046
 17:48:57.620,-1.7441,-1.13185,0.00345631,0,0,0,-1.7441,-1.13185,0.00345631
 17:48:57.620,-1.74388,-1.13196,0.00335147,0,0,0,-1.74388,-1.13196,0.00335147
 17:48:57.621,-1.7443,-1.13216,0.00331398,0,0,0,-1.7443,-1.13216,0.00331398
 17:48:57.621,-1.74412,-1.13179,0.00329803,0,0,0,-1.74412,-1.13179,0.00329803
 17:48:57.621,-1.74388,-1.1325,0.00326272,0,0,0,-1.74388,-1.1325,0.00326272
 17:48:57.622,-1.74362,-1.13324,0.00312079,0,0,0,-1.74362,-1.13324,0.00312079
 17:48:57.623,-1.74283,-1.13403,0.00300591,0,0,0,-1.74283,-1.13403,0.00300591
 17:48:57.623,-1.74262,-1.13419,0.00293995,0,0,0,-1.74262,-1.13419,0.00293995
 17:48:57.623,-1.74179,-1.1343,0.00277991,0,0,0,-1.74179,-1.1343,0.00277991
 17:48:57.624,-1.74153,-1.13444,0.00264599,0,0,0,-1.74153,-1.13444,0.00264599
 17:48:57.624,-1.74072,-1.13464,0.00259165,0,0,0,-1.74072,-1.13464,0.00259165
 17:48:57.625,-1.7405,-1.13481,0.00248465,0,0,0,-1.7405,-1.13481,0.00248465
 17:48:57.626,-1.74034,-1.13489,0.00236592,0,0,0,-1.74034,-1.13489,0.00236592
 17:48:57.626,-1.74022,-1.13495,0.00226156,0,0,0,-1.74022,-1.13495,0.00226156
 17:48:57.626,-1.74008,-1.13508,0.00219614,0,0,0,-1.74008,-1.13508,0.00219614
 17:48:57.627,-1.7393,-1.13581,0.00213317,0,0,0,-1.7393,-1.13581,0.00213317
 17:48:57.627,-1.73854,-1.13592,0.00202636,0,0,0,-1.73854,-1.13592,0.00202636
 17:48:57.628,-1.73839,-1.13548,0.00188962,0,0,0,-1.73839,-1.13548,0.00188962
 17:48:57.629,-1.73819,-1.13561,0.00187507,0,0,0,-1.73819,-1.13561,0.00187507
 17:48:57.629,-1.73798,-1.13511,0.00182978,0,0,0,-1.73798,-1.13511,0.00182978
 17:48:57.630,-1.73782,-1.13462,0.00175906,0,0,0,-1.73782,-1.13462,0.00175906
 17:48:57.630,-1.73818,-1.13469,0.00169124,0,0,0,-1.73818,-1.13469,0.00169124
 17:48:57.631,-1.73731,-1.13415,0.00159097,0,0,0,-1.73731,-1.13415,0.00159097
 17:48:57.631,-1.73705,-1.13307,0.00143453,0,0,0,-1.73705,-1.13307,0.00143453
 17:48:57.631,-1.73684,-1.13265,0.00132337,0,0,0,-1.73684,-1.13265,0.00132337
 17:48:57.632,-1.73612,-1.13227,0.0013064,0,0,0,-1.73612,-1.13227,0.0013064
 17:48:57.633,-1.73599,-1.13242,0.00126768,0,0,0,-1.73599,-1.13242,0.00126768
 17:48:57.633,-1.73579,-1.13196,0.00113066,0,0,0,-1.73579,-1.13196,0.00113066
 17:48:57.633,-1.73558,-1.13214,0.000957178,0,0,0,-1.73558,-1.13214,0.000957178
 17:48:57.634,-1.73598,-1.13228,0.000811437,0,0,0,-1.73598,-1.13228,0.000811437
 17:48:57.634,-1.73637,-1.13295,0.000762443,0,0,0,-1.73637,-1.13295,0.000762443
 17:48:57.635,-1.7373,-1.133,0.000655465,0,0,0,-1.7373,-1.133,0.000655465
 17:48:57.636,-1.73774,-1.13371,0.000567617,0,0,0,-1.73774,-1.13371,0.000567617
 17:48:57.636,-1.73816,-1.13385,0.000435272,0,0,0,-1.73816,-1.13385,0.000435272
 17:48:57.637,-1.73851,-1.13397,0.000261904,0,0,0,-1.73851,-1.13397,0.000261904
 17:48:57.637,-1.7383,-1.13403,0.000195056,0,0,0,-1.7383,-1.13403,0.000195056
 17:48:57.637,-1.73865,-1.13463,0.000131712,0,0,0,-1.73865,-1.13463,0.000131712
 17:48:57.638,-1.7384,-1.13469,3.69E-05,0,0,0,-1.7384,-1.13469,3.69E-05
 17:48:57.639,-1.73878,-1.13479,-1.68E-05,0,0,0,-1.73878,-1.13479,-1.68E-05
 17:48:57.639,-1.73925,-1.1349,-9.47E-05,0,0,0,-1.73925,-1.1349,-9.47E-05
 17:48:57.640,-1.73915,-1.13442,-0.000255976,0,0,0,-1.73915,-1.13442,-0.000255976
 17:48:57.640,-1.739,-1.13457,-0.000388195,0,0,0,-1.739,-1.13457,-0.000388195
 17:48:57.640,-1.73887,-1.13528,-0.000423104,0,0,0,-1.73887,-1.13528,-0.000423104
 17:48:57.641,-1.73869,-1.13594,-0.000379706,0,0,0,-1.73869,-1.13594,-0.000379706
 17:48:57.642,-1.73785,-1.1366,-0.000378565,0,0,0,-1.73785,-1.1366,-0.000378565
 17:48:57.642,-1.7376,-1.13727,-0.000403667,0,0,0,-1.7376,-1.13727,-0.000403667
 17:48:57.643,-1.73737,-1.13728,-0.000459063,0,0,0,-1.73737,-1.13728,-0.000459063
 17:48:57.643,-1.73718,-1.13731,-0.00055328,0,0,0,-1.73718,-1.13731,-0.00055328
 17:48:57.643,-1.73697,-1.13743,-0.00060887,0,0,0,-1.73697,-1.13743,-0.00060887
 17:48:57.644,-1.73683,-1.13702,-0.000693699,0,0,0,-1.73683,-1.13702,-0.000693699
 17:48:57.645,-1.73724,-1.13654,-0.000804789,0,0,0,-1.73724,-1.13654,-0.000804789
 17:48:57.645,-1.73648,-1.13598,-0.000889544,0,0,0,-1.73648,-1.13598,-0.000889544
 17:48:57.646,-1.73624,-1.13544,-0.000976001,0,0,0,-1.73624,-1.13544,-0.000976001
 17:48:57.646,-1.73599,-1.13492,-0.00100929,0,0,0,-1.73599,-1.13492,-0.00100929
 17:48:57.647,-1.73522,-1.13442,-0.00101507,0,0,0,-1.73522,-1.13442,-0.00101507
 17:48:57.647,-1.7345,-1.13449,-0.00104188,0,0,0,-1.7345,-1.13449,-0.00104188
 17:48:57.647,-1.73442,-1.13457,-0.00116008,0,0,0,-1.73442,-1.13457,-0.00116008
 17:48:57.648,-1.73381,-1.1353,-0.00123355,0,0,0,-1.73381,-1.1353,-0.00123355
 17:48:57.649,-1.73436,-1.13609,-0.00132024,0,0,0,-1.73436,-1.13609,-0.00132024
 17:48:57.649,-1.73368,-1.13686,-0.0014226,0,0,0,-1.73368,-1.13686,-0.0014226
 17:48:57.650,-1.73297,-1.13756,-0.00147306,0,0,0,-1.73297,-1.13756,-0.00147306
 17:48:57.650,-1.73281,-1.13766,-0.00159462,0,0,0,-1.73281,-1.13766,-0.00159462
 17:48:57.650,-1.73204,-1.13714,-0.00180041,0,0,0,-1.73204,-1.13714,-0.00180041
 17:48:57.651,-1.73184,-1.13658,-0.00182107,0,0,0,-1.73184,-1.13658,-0.00182107
 17:48:57.652,-1.73168,-1.13602,-0.00185379,0,0,0,-1.73168,-1.13602,-0.00185379
 17:48:57.652,-1.73155,-1.13553,-0.00193833,0,0,0,-1.73155,-1.13553,-0.00193833
 17:48:57.653,-1.73142,-1.13506,-0.00202342,0,0,0,-1.73142,-1.13506,-0.00202342
 17:48:57.653,-1.73181,-1.1345,-0.0021357,0,0,0,-1.73181,-1.1345,-0.0021357
 17:48:57.653,-1.73162,-1.1334,-0.00225189,0,0,0,-1.73162,-1.1334,-0.00225189
 17:48:57.654,-1.73148,-1.13292,-0.0022173,0,0,0,-1.73148,-1.13292,-0.0022173
 17:48:57.655,-1.73088,-1.13301,-0.00225467,0,0,0,-1.73088,-1.13301,-0.00225467
 17:48:57.655,-1.73079,-1.13309,-0.00234671,0,0,0,-1.73079,-1.13309,-0.00234671
 17:48:57.656,-1.73122,-1.13323,-0.002361,0,0,0,-1.73122,-1.13323,-0.002361
 17:48:57.656,-1.73112,-1.13337,-0.00241405,0,0,0,-1.73112,-1.13337,-0.00241405
 17:48:57.656,-1.73107,-1.13352,-0.00250551,0,0,0,-1.73107,-1.13352,-0.00250551
 17:48:57.657,-1.73155,-1.13368,-0.0026114,0,0,0,-1.73155,-1.13368,-0.0026114
 17:48:57.658,-1.73203,-1.13442,-0.0026339,0,0,0,-1.73203,-1.13442,-0.0026339
 17:48:57.658,-1.73256,-1.13511,-0.00260205,0,0,0,-1.73256,-1.13511,-0.00260205
 17:48:57.659,-1.73247,-1.13515,-0.00260184,0,0,0,-1.73247,-1.13515,-0.00260184
 17:48:57.659,-1.73233,-1.13524,-0.00264298,0,0,0,-1.73233,-1.13524,-0.00264298
 17:48:57.659,-1.7322,-1.13591,-0.00267955,0,0,0,-1.7322,-1.13591,-0.00267955
 17:48:57.660,-1.73149,-1.13599,-0.00273375,0,0,0,-1.73149,-1.13599,-0.00273375
 17:48:57.661,-1.73135,-1.13617,-0.00280176,0,0,0,-1.73135,-1.13617,-0.00280176
 17:48:57.661,-1.73128,-1.13638,-0.00289453,0,0,0,-1.73128,-1.13638,-0.00289453
 17:48:57.662,-1.73069,-1.13652,-0.00298572,0,0,0,-1.73069,-1.13652,-0.00298572
 17:48:57.662,-1.73002,-1.13596,-0.00309656,0,0,0,-1.73002,-1.13596,-0.00309656
 17:48:57.663,-1.72924,-1.13601,-0.00317969,0,0,0,-1.72924,-1.13601,-0.00317969
 17:48:57.663,-1.72908,-1.13622,-0.00319599,0,0,0,-1.72908,-1.13622,-0.00319599
 17:48:57.663,-1.72839,-1.13641,-0.00319805,0,0,0,-1.72839,-1.13641,-0.00319805
 17:48:57.664,-1.72772,-1.13589,-0.0032167,0,0,0,-1.72772,-1.13589,-0.0032167
 17:48:57.665,-1.72764,-1.13597,-0.00315158,0,0,0,-1.72764,-1.13597,-0.00315158
 17:48:57.665,-1.72751,-1.13606,-0.00323315,0,0,0,-1.72751,-1.13606,-0.00323315
 17:48:57.666,-1.72739,-1.1361,-0.00338074,0,0,0,-1.72739,-1.1361,-0.00338074
 17:48:57.666,-1.72669,-1.13672,-0.003498,0,0,0,-1.72669,-1.13672,-0.003498
 17:48:57.666,-1.72657,-1.1368,-0.0036464,0,0,0,-1.72657,-1.1368,-0.0036464
 17:48:57.667,-1.72645,-1.13695,-0.00372883,0,0,0,-1.72645,-1.13695,-0.00372883
 17:48:57.668,-1.72632,-1.13655,-0.00384208,0,0,0,-1.72632,-1.13655,-0.00384208
 17:48:57.668,-1.72623,-1.13663,-0.00396349,0,0,0,-1.72623,-1.13663,-0.00396349
 17:48:57.669,-1.7262,-1.13605,-0.00404727,0,0,0,-1.7262,-1.13605,-0.00404727
 17:48:57.669,-1.72615,-1.13604,-0.00402134,0,0,0,-1.72615,-1.13604,-0.00402134
 17:48:57.669,-1.72607,-1.13549,-0.00406654,0,0,0,-1.72607,-1.13549,-0.00406654
 17:48:57.670,-1.72595,-1.13496,-0.00413931,0,0,0,-1.72595,-1.13496,-0.00413931
 17:48:57.671,-1.72586,-1.13504,-0.00418055,0,0,0,-1.72586,-1.13504,-0.00418055
 17:48:57.671,-1.72582,-1.13458,-0.00427774,0,0,0,-1.72582,-1.13458,-0.00427774
 17:48:57.672,-1.72577,-1.13472,-0.00434452,0,0,0,-1.72577,-1.13472,-0.00434452
 17:48:57.672,-1.7257,-1.13481,-0.00439843,0,0,0,-1.7257,-1.13481,-0.00439843
 17:48:57.673,-1.72566,-1.13428,-0.00450863,0,0,0,-1.72566,-1.13428,-0.00450863
 17:48:57.673,-1.72507,-1.13379,-0.00469766,0,0,0,-1.72507,-1.13379,-0.00469766
 17:48:57.674,-1.72502,-1.1339,-0.00480397,0,0,0,-1.72502,-1.1339,-0.00480397
 17:48:57.674,-1.72443,-1.1346,-0.00482633,0,0,0,-1.72443,-1.1346,-0.00482633
 17:48:57.675,-1.7244,-1.13526,-0.00486242,0,0,0,-1.7244,-1.13526,-0.00486242
 17:48:57.675,-1.72433,-1.13591,-0.00488623,0,0,0,-1.72433,-1.13591,-0.00488623
 17:48:57.675,-1.72432,-1.1366,-0.00488286,0,0,0,-1.72432,-1.1366,-0.00488286
 17:48:57.676,-1.72431,-1.1373,-0.00495855,0,0,0,-1.72431,-1.1373,-0.00495855
 17:48:57.677,-1.72428,-1.13742,-0.00510534,0,0,0,-1.72428,-1.13742,-0.00510534
 17:48:57.677,-1.7242,-1.13753,-0.00514742,0,0,0,-1.7242,-1.13753,-0.00514742
 17:48:57.678,-1.7236,-1.13762,-0.00516199,0,0,0,-1.7236,-1.13762,-0.00516199
 17:48:57.678,-1.72362,-1.13769,-0.00525499,0,0,0,-1.72362,-1.13769,-0.00525499
 17:48:57.679,-1.72411,-1.13716,-0.00540724,0,0,0,-1.72411,-1.13716,-0.00540724
 17:48:57.679,-1.72459,-1.13662,-0.00550624,0,0,0,-1.72459,-1.13662,-0.00550624
 17:48:57.679,-1.72514,-1.13612,-0.00557741,0,0,0,-1.72514,-1.13612,-0.00557741
 17:48:57.680,-1.72513,-1.13567,-0.00570093,0,0,0,-1.72513,-1.13567,-0.00570093
 17:48:57.681,-1.72507,-1.13579,-0.00578148,0,0,0,-1.72507,-1.13579,-0.00578148
 17:48:57.681,-1.72501,-1.13537,-0.00582681,0,0,0,-1.72501,-1.13537,-0.00582681
 17:48:57.682,-1.72503,-1.13497,-0.00588315,0,0,0,-1.72503,-1.13497,-0.00588315
 17:48:57.682,-1.72446,-1.13458,-0.00588693,0,0,0,-1.72446,-1.13458,-0.00588693
 17:48:57.682,-1.72388,-1.13422,-0.00589098,0,0,0,-1.72388,-1.13422,-0.00589098
 17:48:57.683,-1.72382,-1.13437,-0.00598485,0,0,0,-1.72382,-1.13437,-0.00598485
 17:48:57.684,-1.72378,-1.13446,-0.00611792,0,0,0,-1.72378,-1.13446,-0.00611792
 17:48:57.684,-1.72377,-1.13452,-0.00618389,0,0,0,-1.72377,-1.13452,-0.00618389
 17:48:57.685,-1.72371,-1.13399,-0.00618918,0,0,0,-1.72371,-1.13399,-0.00618918
 17:48:57.685,-1.72419,-1.13345,-0.00614238,0,0,0,-1.72419,-1.13345,-0.00614238
 17:48:57.686,-1.72358,-1.13244,-0.00625644,0,0,0,-1.72358,-1.13244,-0.00625644
 17:48:57.686,-1.72356,-1.13145,-0.00647626,0,0,0,-1.72356,-1.13145,-0.00647626
 17:48:57.687,-1.7241,-1.13043,-0.00661648,0,0,0,-1.7241,-1.13043,-0.00661648
 17:48:57.687,-1.72405,-1.12942,-0.00669038,0,0,0,-1.72405,-1.12942,-0.00669038
 17:48:57.688,-1.72404,-1.12845,-0.0067104,0,0,0,-1.72404,-1.12845,-0.0067104
 17:48:57.688,-1.72404,-1.12806,-0.00667309,0,0,0,-1.72404,-1.12806,-0.00667309
 17:48:57.689,-1.72404,-1.12765,-0.00676767,0,0,0,-1.72404,-1.12765,-0.00676767
 17:48:57.689,-1.72349,-1.12785,-0.00692326,0,0,0,-1.72349,-1.12785,-0.00692326
 17:48:57.690,-1.72351,-1.12865,-0.00703599,0,0,0,-1.72351,-1.12865,-0.00703599
 17:48:57.690,-1.72352,-1.12945,-0.0070698,0,0,0,-1.72352,-1.12945,-0.0070698
 17:48:57.691,-1.72355,-1.13028,-0.00712975,0,0,0,-1.72355,-1.13028,-0.00712975
 17:48:57.691,-1.72295,-1.13108,-0.00716508,0,0,0,-1.72295,-1.13108,-0.00716508
 17:48:57.692,-1.72287,-1.13182,-0.00717519,0,0,0,-1.72287,-1.13182,-0.00717519
 17:48:57.692,-1.72284,-1.13254,-0.00719774,0,0,0,-1.72284,-1.13254,-0.00719774
 17:48:57.693,-1.72287,-1.1333,-0.00727188,0,0,0,-1.72287,-1.1333,-0.00727188
 17:48:57.693,-1.72229,-1.13339,-0.00745671,0,0,0,-1.72229,-1.13339,-0.00745671
 17:48:57.694,-1.72228,-1.13348,-0.00768175,0,0,0,-1.72228,-1.13348,-0.00768175
 17:48:57.694,-1.72165,-1.13355,-0.00776206,0,0,0,-1.72165,-1.13355,-0.00776206
 17:48:57.695,-1.72104,-1.13307,-0.00782014,0,0,0,-1.72104,-1.13307,-0.00782014
 17:48:57.695,-1.72041,-1.13267,-0.00797136,0,0,0,-1.72041,-1.13267,-0.00797136
 17:48:57.696,-1.72037,-1.13225,-0.00809533,0,0,0,-1.72037,-1.13225,-0.00809533
 17:48:57.696,-1.72043,-1.13068,-0.00814496,0,0,0,-1.72043,-1.13068,-0.00814496
 17:48:57.697,-1.71997,-1.12972,-0.00814959,0,0,0,-1.71997,-1.12972,-0.00814959
 17:48:57.697,-1.72002,-1.12932,-0.00815125,0,0,0,-1.72002,-1.12932,-0.00815125
 17:48:57.698,-1.72003,-1.12952,-0.00821656,0,0,0,-1.72003,-1.12952,-0.00821656
 17:48:57.698,-1.72007,-1.12918,-0.00835115,0,0,0,-1.72007,-1.12918,-0.00835115
 17:48:57.699,-1.72071,-1.1288,-0.00845855,0,0,0,-1.72071,-1.1288,-0.00845855
 17:48:57.699,-1.7213,-1.12836,-0.00854015,0,0,0,-1.7213,-1.12836,-0.00854015
 17:48:57.700,-1.72131,-1.12793,-0.00858213,0,0,0,-1.72131,-1.12793,-0.00858213
 17:48:57.700,-1.72187,-1.12757,-0.00861151,0,0,0,-1.72187,-1.12757,-0.00861151
 17:48:57.701,-1.72183,-1.12779,-0.00865039,0,0,0,-1.72183,-1.12779,-0.00865039
 17:48:57.701,-1.72186,-1.12744,-0.00877121,0,0,0,-1.72186,-1.12744,-0.00877121
 17:48:57.702,-1.72189,-1.12708,-0.00887842,0,0,0,-1.72189,-1.12708,-0.00887842
 17:48:57.702,-1.72199,-1.12678,-0.00895766,0,0,0,-1.72199,-1.12678,-0.00895766
 17:48:57.703,-1.72267,-1.12712,-0.00903307,0,0,0,-1.72267,-1.12712,-0.00903307
 17:48:57.703,-1.72327,-1.12802,-0.00911909,0,0,0,-1.72327,-1.12802,-0.00911909
 17:48:57.704,-1.72326,-1.12887,-0.00921949,0,0,0,-1.72326,-1.12887,-0.00921949
 17:48:57.704,-1.72265,-1.12971,-0.00928118,0,0,0,-1.72265,-1.12971,-0.00928118
 17:48:57.705,-1.72262,-1.13052,-0.00932976,0,0,0,-1.72262,-1.13052,-0.00932976
 17:48:57.705,-1.72203,-1.13129,-0.00941767,0,0,0,-1.72203,-1.13129,-0.00941767
 17:48:57.706,-1.72199,-1.13148,-0.00956368,0,0,0,-1.72199,-1.13148,-0.00956368
 17:48:57.706,-1.722,-1.13223,-0.00978365,0,0,0,-1.722,-1.13223,-0.00978365
 17:48:57.707,-1.722,-1.13298,-0.00995134,0,0,0,-1.722,-1.13298,-0.00995134
 17:48:57.707,-1.72135,-1.1337,-0.0100019,0,0,0,-1.72135,-1.1337,-0.0100019
 17:48:57.708,-1.72128,-1.13379,-0.0100964,0,0,0,-1.72128,-1.13379,-0.0100964
 17:48:57.708,-1.7207,-1.13388,-0.0102823,0,0,0,-1.7207,-1.13388,-0.0102823
 17:48:57.709,-1.72073,-1.13398,-0.0104139,0,0,0,-1.72073,-1.13398,-0.0104139
 17:48:57.709,-1.72069,-1.13351,-0.0104721,0,0,0,-1.72069,-1.13351,-0.0104721
 17:48:57.710,-1.72066,-1.13362,-0.0104994,0,0,0,-1.72066,-1.13362,-0.0104994
 17:48:57.710,-1.72064,-1.13319,-0.0105701,0,0,0,-1.72064,-1.13319,-0.0105701
 17:48:57.711,-1.72064,-1.1328,-0.0106935,0,0,0,-1.72064,-1.1328,-0.0106935
 17:48:57.711,-1.72003,-1.13297,-0.0108667,0,0,0,-1.72003,-1.13297,-0.0108667
 17:48:57.712,-1.71997,-1.13311,-0.0110271,0,0,0,-1.71997,-1.13311,-0.0110271
 17:48:57.712,-1.71998,-1.13331,-0.0110934,0,0,0,-1.71998,-1.13331,-0.0110934
 17:48:57.713,-1.71945,-1.13291,-0.0110971,0,0,0,-1.71945,-1.13291,-0.0110971
 17:48:57.713,-1.71945,-1.13245,-0.011115,0,0,0,-1.71945,-1.13245,-0.011115
 17:48:57.714,-1.71946,-1.13258,-0.0112337,0,0,0,-1.71946,-1.13258,-0.0112337
 17:48:57.714,-1.72005,-1.13271,-0.0114055,0,0,0,-1.72005,-1.13271,-0.0114055
 17:48:57.715,-1.72006,-1.13225,-0.0115152,0,0,0,-1.72006,-1.13225,-0.0115152
 17:48:57.715,-1.71949,-1.1318,-0.0116247,0,0,0,-1.71949,-1.1318,-0.0116247
 17:48:57.716,-1.71949,-1.13191,-0.0116776,0,0,0,-1.71949,-1.13191,-0.0116776
 17:48:57.716,-1.71945,-1.13144,-0.0117225,0,0,0,-1.71945,-1.13144,-0.0117225
 17:48:57.717,-1.71996,-1.13041,-0.0118508,0,0,0,-1.71996,-1.13041,-0.0118508
 17:48:57.717,-1.71985,-1.13057,-0.0119854,0,0,0,-1.71985,-1.13057,-0.0119854
 17:48:57.718,-1.72033,-1.13018,-0.0121233,0,0,0,-1.72033,-1.13018,-0.0121233
 17:48:57.718,-1.72146,-1.13038,-0.0122025,0,0,0,-1.72146,-1.13038,-0.0122025
 17:48:57.719,-1.72258,-1.12996,-0.0123253,0,0,0,-1.72258,-1.12996,-0.0123253
 17:48:57.719,-1.72312,-1.13014,-0.0124571,0,0,0,-1.72312,-1.13014,-0.0124571
 17:48:57.720,-1.72365,-1.13035,-0.0125232,0,0,0,-1.72365,-1.13035,-0.0125232
 17:48:57.720,-1.72359,-1.13052,-0.0125499,0,0,0,-1.72359,-1.13052,-0.0125499
 17:48:57.721,-1.72415,-1.13071,-0.0126678,0,0,0,-1.72415,-1.13071,-0.0126678
 17:48:57.721,-1.72474,-1.1309,-0.0128512,0,0,0,-1.72474,-1.1309,-0.0128512
 17:48:57.722,-1.72467,-1.13107,-0.0130101,0,0,0,-1.72467,-1.13107,-0.0130101
 17:48:57.722,-1.72465,-1.13124,-0.0130621,0,0,0,-1.72465,-1.13124,-0.0130621
 17:48:57.723,-1.72466,-1.13142,-0.0130606,0,0,0,-1.72466,-1.13142,-0.0130606
 17:48:57.723,-1.72469,-1.13223,-0.0130944,0,0,0,-1.72469,-1.13223,-0.0130944
 17:48:57.724,-1.72469,-1.13412,-0.0130812,0,0,0,-1.72469,-1.13412,-0.0130812
 17:48:57.724,-1.72399,-1.13534,-0.0131417,0,0,0,-1.72399,-1.13534,-0.0131417
 17:48:57.725,-1.72325,-1.13596,-0.0132739,0,0,0,-1.72325,-1.13596,-0.0132739
 17:48:57.725,-1.72312,-1.13663,-0.0133662,0,0,0,-1.72312,-1.13663,-0.0133662
 17:48:57.726,-1.72303,-1.13732,-0.0134178,0,0,0,-1.72303,-1.13732,-0.0134178
 17:48:57.726,-1.723,-1.13679,-0.0135684,0,0,0,-1.723,-1.13679,-0.0135684
 17:48:57.727,-1.72295,-1.13626,-0.0137328,0,0,0,-1.72295,-1.13626,-0.0137328
 17:48:57.727,-1.7223,-1.13574,-0.0138716,0,0,0,-1.7223,-1.13574,-0.0138716
 17:48:57.728,-1.72169,-1.1346,-0.0140134,0,0,0,-1.72169,-1.1346,-0.0140134
 17:48:57.728,-1.72105,-1.13346,-0.0140227,0,0,0,-1.72105,-1.13346,-0.0140227
 17:48:57.729,-1.72101,-1.13182,-0.0140226,0,0,0,-1.72101,-1.13182,-0.0140226
 17:48:57.729,-1.7204,-1.13078,-0.0139781,0,0,0,-1.7204,-1.13078,-0.0139781
 17:48:57.730,-1.71981,-1.13036,-0.014035,0,0,0,-1.71981,-1.13036,-0.014035
 17:48:57.730,-1.71921,-1.13053,-0.0141545,0,0,0,-1.71921,-1.13053,-0.0141545
 17:48:57.731,-1.7186,-1.13015,-0.014265,0,0,0,-1.7186,-1.13015,-0.014265
 17:48:57.731,-1.71804,-1.12972,-0.0143876,0,0,0,-1.71804,-1.12972,-0.0143876
 17:48:57.732,-1.7175,-1.12992,-0.0144925,0,0,0,-1.7175,-1.12992,-0.0144925
 17:48:57.732,-1.71749,-1.12954,-0.0145496,0,0,0,-1.71749,-1.12954,-0.0145496
 17:48:57.733,-1.71807,-1.12972,-0.0145624,0,0,0,-1.71807,-1.12972,-0.0145624
 17:48:57.733,-1.71867,-1.12933,-0.0146451,0,0,0,-1.71867,-1.12933,-0.0146451
 17:48:57.734,-1.71929,-1.12957,-0.0147895,0,0,0,-1.71929,-1.12957,-0.0147895
 17:48:57.734,-1.71934,-1.12983,-0.0149204,0,0,0,-1.71934,-1.12983,-0.0149204
 17:48:57.735,-1.7194,-1.13006,-0.0150111,0,0,0,-1.7194,-1.13006,-0.0150111
 17:48:57.735,-1.7194,-1.1308,-0.0150461,0,0,0,-1.7194,-1.1308,-0.0150461
 17:48:57.736,-1.71935,-1.13091,-0.0150868,0,0,0,-1.71935,-1.13091,-0.0150868
 17:48:57.736,-1.71931,-1.13098,-0.0151401,0,0,0,-1.71931,-1.13098,-0.0151401
 17:48:57.737,-1.71934,-1.13219,-0.0152102,0,0,0,-1.71934,-1.13219,-0.0152102
 17:48:57.737,-1.71944,-1.13235,-0.0153669,0,0,0,-1.71944,-1.13235,-0.0153669
 17:48:57.738,-1.7201,-1.13314,-0.0154668,0,0,0,-1.7201,-1.13314,-0.0154668
 17:48:57.738,-1.72015,-1.13392,-0.0155148,0,0,0,-1.72015,-1.13392,-0.0155148
 17:48:57.739,-1.72012,-1.13457,-0.0155515,0,0,0,-1.72012,-1.13457,-0.0155515
 17:48:57.739,-1.71954,-1.13521,-0.0156411,0,0,0,-1.71954,-1.13521,-0.0156411
 17:48:57.740,-1.71953,-1.13534,-0.0157481,0,0,0,-1.71953,-1.13534,-0.0157481
 17:48:57.740,-1.71891,-1.13546,-0.0158164,0,0,0,-1.71891,-1.13546,-0.0158164
 17:48:57.741,-1.7183,-1.13607,-0.0158676,0,0,0,-1.7183,-1.13607,-0.0158676
 17:48:57.741,-1.71831,-1.13611,-0.0159084,0,0,0,-1.71831,-1.13611,-0.0159084
 17:48:57.742,-1.7184,-1.13624,-0.0159868,0,0,0,-1.7184,-1.13624,-0.0159868
 17:48:57.742,-1.71844,-1.13574,-0.0161368,0,0,0,-1.71844,-1.13574,-0.0161368
 17:48:57.743,-1.71905,-1.13463,-0.0162246,0,0,0,-1.71905,-1.13463,-0.0162246
 17:48:57.743,-1.71852,-1.1341,-0.0162547,0,0,0,-1.71852,-1.1341,-0.0162547
 17:48:57.744,-1.71853,-1.13364,-0.0163785,0,0,0,-1.71853,-1.13364,-0.0163785
 17:48:57.745,-1.71851,-1.13323,-0.0164898,0,0,0,-1.71851,-1.13323,-0.0164898
 17:48:57.745,-1.71795,-1.1328,-0.0165996,0,0,0,-1.71795,-1.1328,-0.0165996
 17:48:57.745,-1.71796,-1.13235,-0.0166171,0,0,0,-1.71796,-1.13235,-0.0166171
 17:48:57.746,-1.71737,-1.13192,-0.0165954,0,0,0,-1.71737,-1.13192,-0.0165954
 17:48:57.746,-1.71679,-1.13149,-0.0166266,0,0,0,-1.71679,-1.13149,-0.0166266
 17:48:57.747,-1.71684,-1.13106,-0.0166565,0,0,0,-1.71684,-1.13106,-0.0166565
 17:48:57.748,-1.71694,-1.13064,-0.0167774,0,0,0,-1.71694,-1.13064,-0.0167774
 17:48:57.748,-1.71701,-1.13079,-0.016895,0,0,0,-1.71701,-1.13079,-0.016895
 17:48:57.748,-1.71704,-1.13089,-0.0169606,0,0,0,-1.71704,-1.13089,-0.0169606
 17:48:57.749,-1.71703,-1.13099,-0.0169872,0,0,0,-1.71703,-1.13099,-0.0169872
 17:48:57.749,-1.71704,-1.13109,-0.016974,0,0,0,-1.71704,-1.13109,-0.016974
 17:48:57.750,-1.71708,-1.13121,-0.0170529,0,0,0,-1.71708,-1.13121,-0.0170529
 17:48:57.750,-1.71709,-1.13082,-0.0171495,0,0,0,-1.71709,-1.13082,-0.0171495
 17:48:57.751,-1.71713,-1.1304,-0.017206,0,0,0,-1.71713,-1.1304,-0.017206
 17:48:57.751,-1.71776,-1.1299,-0.0173144,0,0,0,-1.71776,-1.1299,-0.0173144
 17:48:57.752,-1.71838,-1.13059,-0.0174151,0,0,0,-1.71838,-1.13059,-0.0174151
 17:48:57.752,-1.71845,-1.13076,-0.0174928,0,0,0,-1.71845,-1.13076,-0.0174928
 17:48:57.753,-1.71845,-1.13088,-0.0175456,0,0,0,-1.71845,-1.13088,-0.0175456
 17:48:57.753,-1.7179,-1.13159,-0.0175542,0,0,0,-1.7179,-1.13159,-0.0175542
 17:48:57.754,-1.7174,-1.13236,-0.0175756,0,0,0,-1.7174,-1.13236,-0.0175756
 17:48:57.754,-1.7169,-1.13254,-0.017614,0,0,0,-1.7169,-1.13254,-0.017614
 17:48:57.755,-1.71638,-1.13324,-0.0176625,0,0,0,-1.71638,-1.13324,-0.0176625
 17:48:57.755,-1.71585,-1.13393,-0.0176983,0,0,0,-1.71585,-1.13393,-0.0176983
 17:48:57.756,-1.71534,-1.13404,-0.0177247,0,0,0,-1.71534,-1.13404,-0.0177247
 17:48:57.760,-1.71538,-1.13416,-0.0177387,0,0,0,-1.71538,-1.13416,-0.0177387
 17:48:57.760,-1.71546,-1.13486,-0.0177348,0,0,0,-1.71546,-1.13486,-0.0177348
 17:48:57.760,-1.71555,-1.13501,-0.017814,0,0,0,-1.71555,-1.13501,-0.017814
 17:48:57.760,-1.71566,-1.13516,-0.0178926,0,0,0,-1.71566,-1.13516,-0.0178926
 17:48:57.760,-1.71517,-1.13528,-0.0179851,0,0,0,-1.71517,-1.13528,-0.0179851
 17:48:57.760,-1.71466,-1.13477,-0.0180817,0,0,0,-1.71466,-1.13477,-0.0180817
 17:48:57.760,-1.71468,-1.13429,-0.0181533,0,0,0,-1.71468,-1.13429,-0.0181533
 17:48:57.760,-1.71465,-1.1338,-0.0182389,0,0,0,-1.71465,-1.1338,-0.0182389
 17:48:57.760,-1.71466,-1.13336,-0.0182974,0,0,0,-1.71466,-1.13336,-0.0182974
 17:48:57.761,-1.71473,-1.13231,-0.0183446,0,0,0,-1.71473,-1.13231,-0.0183446
 17:48:57.761,-1.71479,-1.13183,-0.0183879,0,0,0,-1.71479,-1.13183,-0.0183879
 17:48:57.762,-1.71482,-1.13086,-0.0184759,0,0,0,-1.71482,-1.13086,-0.0184759
 17:48:57.762,-1.71435,-1.12937,-0.0185525,0,0,0,-1.71435,-1.12937,-0.0185525
 17:48:57.763,-1.71389,-1.1284,-0.0186772,0,0,0,-1.71389,-1.1284,-0.0186772
 17:48:57.764,-1.71396,-1.12736,-0.0188421,0,0,0,-1.71396,-1.12736,-0.0188421
 17:48:57.764,-1.71397,-1.12693,-0.0189647,0,0,0,-1.71397,-1.12693,-0.0189647
 17:48:57.764,-1.71342,-1.12661,-0.0191005,0,0,0,-1.71342,-1.12661,-0.0191005
 17:48:57.765,-1.71351,-1.12634,-0.019235,0,0,0,-1.71351,-1.12634,-0.019235
 17:48:57.765,-1.71365,-1.12662,-0.0193372,0,0,0,-1.71365,-1.12662,-0.0193372
 17:48:57.766,-1.71435,-1.12689,-0.0194267,0,0,0,-1.71435,-1.12689,-0.0194267
 17:48:57.766,-1.71499,-1.12709,-0.0194513,0,0,0,-1.71499,-1.12709,-0.0194513
 17:48:57.767,-1.71504,-1.12725,-0.0195421,0,0,0,-1.71504,-1.12725,-0.0195421
 17:48:57.767,-1.7151,-1.12741,-0.0196463,0,0,0,-1.7151,-1.12741,-0.0196463
 17:48:57.768,-1.71516,-1.12815,-0.0196803,0,0,0,-1.71516,-1.12815,-0.0196803
 17:48:57.768,-1.71525,-1.12893,-0.0197935,0,0,0,-1.71525,-1.12893,-0.0197935
 17:48:57.769,-1.71588,-1.12971,-0.0198941,0,0,0,-1.71588,-1.12971,-0.0198941
 17:48:57.769,-1.71712,-1.13049,-0.0199281,0,0,0,-1.71712,-1.13049,-0.0199281
 17:48:57.770,-1.71781,-1.13126,-0.0200139,0,0,0,-1.71781,-1.13126,-0.0200139
 17:48:57.771,-1.71847,-1.13137,-0.0200912,0,0,0,-1.71847,-1.13137,-0.0200912
 17:48:57.771,-1.71964,-1.13148,-0.0201042,0,0,0,-1.71964,-1.13148,-0.0201042
 17:48:57.771,-1.7202,-1.13166,-0.0201708,0,0,0,-1.7202,-1.13166,-0.0201708
 17:48:57.772,-1.72075,-1.13247,-0.0202467,0,0,0,-1.72075,-1.13247,-0.0202467
 17:48:57.772,-1.72079,-1.13327,-0.0203209,0,0,0,-1.72079,-1.13327,-0.0203209
 17:48:57.773,-1.72142,-1.13339,-0.0204124,0,0,0,-1.72142,-1.13339,-0.0204124
 17:48:57.773,-1.72205,-1.13353,-0.0205168,0,0,0,-1.72205,-1.13353,-0.0205168
 17:48:57.774,-1.72204,-1.13433,-0.0205396,0,0,0,-1.72204,-1.13433,-0.0205396
 17:48:57.774,-1.72143,-1.13505,-0.0205237,0,0,0,-1.72143,-1.13505,-0.0205237
 17:48:57.775,-1.72083,-1.13512,-0.0205509,0,0,0,-1.72083,-1.13512,-0.0205509
 17:48:57.775,-1.72025,-1.13464,-0.020622,0,0,0,-1.72025,-1.13464,-0.020622
 17:48:57.776,-1.71961,-1.13473,-0.0207299,0,0,0,-1.71961,-1.13473,-0.0207299
 17:48:57.776,-1.71899,-1.13427,-0.0208683,0,0,0,-1.71899,-1.13427,-0.0208683
 17:48:57.776,-1.71843,-1.13385,-0.0210056,0,0,0,-1.71843,-1.13385,-0.0210056
 17:48:57.776,-1.71786,-1.13345,-0.0210367,0,0,0,-1.71786,-1.13345,-0.0210367
 17:48:57.777,-1.7179,-1.13306,-0.0209877,0,0,0,-1.7179,-1.13306,-0.0209877
 17:48:57.777,-1.71797,-1.13207,-0.0210348,0,0,0,-1.71797,-1.13207,-0.0210348
 17:48:57.778,-1.718,-1.13104,-0.0211484,0,0,0,-1.718,-1.13104,-0.0211484
 17:48:57.779,-1.7174,-1.13056,-0.0212325,0,0,0,-1.7174,-1.13056,-0.0212325
 17:48:57.779,-1.71739,-1.13015,-0.0213428,0,0,0,-1.71739,-1.13015,-0.0213428
 17:48:57.779,-1.71684,-1.12982,-0.0214789,0,0,0,-1.71684,-1.12982,-0.0214789
 17:48:57.780,-1.71688,-1.13,-0.0215575,0,0,0,-1.71688,-1.13,-0.0215575
 17:48:57.780,-1.71693,-1.13072,-0.0215921,0,0,0,-1.71693,-1.13072,-0.0215921
 17:48:57.781,-1.717,-1.13145,-0.0217057,0,0,0,-1.717,-1.13145,-0.0217057
 17:48:57.781,-1.71705,-1.1316,-0.021877,0,0,0,-1.71705,-1.1316,-0.021877
 17:48:57.782,-1.71711,-1.13233,-0.0219248,0,0,0,-1.71711,-1.13233,-0.0219248
 17:48:57.782,-1.71718,-1.13247,-0.02203,0,0,0,-1.71718,-1.13247,-0.02203
 17:48:57.783,-1.7178,-1.13256,-0.0221615,0,0,0,-1.7178,-1.13256,-0.0221615
 17:48:57.783,-1.71842,-1.13268,-0.022227,0,0,0,-1.71842,-1.13268,-0.022227
 17:48:57.784,-1.71851,-1.13281,-0.0222517,0,0,0,-1.71851,-1.13281,-0.0222517
 17:48:57.784,-1.71803,-1.13291,-0.0222891,0,0,0,-1.71803,-1.13291,-0.0222891
 17:48:57.785,-1.71803,-1.13296,-0.022448,0,0,0,-1.71803,-1.13296,-0.022448
 17:48:57.785,-1.71803,-1.13301,-0.0226207,0,0,0,-1.71803,-1.13301,-0.0226207
 17:48:57.786,-1.71807,-1.13309,-0.022779,0,0,0,-1.71807,-1.13309,-0.022779
 17:48:57.786,-1.71755,-1.13379,-0.0229062,0,0,0,-1.71755,-1.13379,-0.0229062
 17:48:57.787,-1.71708,-1.13455,-0.0229674,0,0,0,-1.71708,-1.13455,-0.0229674
 17:48:57.787,-1.71715,-1.13472,-0.0230468,0,0,0,-1.71715,-1.13472,-0.0230468
 17:48:57.788,-1.71713,-1.13535,-0.023084,0,0,0,-1.71713,-1.13535,-0.023084
 17:48:57.789,-1.71711,-1.136,-0.0230956,0,0,0,-1.71711,-1.136,-0.0230956
 17:48:57.789,-1.71645,-1.1361,-0.023126,0,0,0,-1.71645,-1.1361,-0.023126
 17:48:57.789,-1.71576,-1.13619,-0.0231576,0,0,0,-1.71576,-1.13619,-0.0231576
 17:48:57.790,-1.71572,-1.13562,-0.0232174,0,0,0,-1.71572,-1.13562,-0.0232174
 17:48:57.790,-1.71514,-1.13445,-0.0232931,0,0,0,-1.71514,-1.13445,-0.0232931
 17:48:57.791,-1.71525,-1.13343,-0.0233799,0,0,0,-1.71525,-1.13343,-0.0233799
 17:48:57.792,-1.71539,-1.13311,-0.0233953,0,0,0,-1.71539,-1.13311,-0.0233953
 17:48:57.792,-1.71549,-1.13266,-0.0234776,0,0,0,-1.71549,-1.13266,-0.0234776
 17:48:57.792,-1.71561,-1.13214,-0.0235987,0,0,0,-1.71561,-1.13214,-0.0235987
 17:48:57.793,-1.71627,-1.13164,-0.0235883,0,0,0,-1.71627,-1.13164,-0.0235883
 17:48:57.793,-1.71574,-1.13118,-0.0236051,0,0,0,-1.71574,-1.13118,-0.0236051
 17:48:57.794,-1.71572,-1.13069,-0.0237026,0,0,0,-1.71572,-1.13069,-0.0237026
 17:48:57.795,-1.71574,-1.13024,-0.0237862,0,0,0,-1.71574,-1.13024,-0.0237862
 17:48:57.795,-1.71578,-1.12989,-0.0238691,0,0,0,-1.71578,-1.12989,-0.0238691
 17:48:57.796,-1.71584,-1.1307,-0.0239698,0,0,0,-1.71584,-1.1307,-0.0239698
 17:48:57.796,-1.71588,-1.13086,-0.0240358,0,0,0,-1.71588,-1.13086,-0.0240358
 17:48:57.796,-1.71594,-1.13096,-0.0240085,0,0,0,-1.71594,-1.13096,-0.0240085
 17:48:57.797,-1.71544,-1.13107,-0.0239806,0,0,0,-1.71544,-1.13107,-0.0239806
 17:48:57.797,-1.71494,-1.13123,-0.0240722,0,0,0,-1.71494,-1.13123,-0.0240722
 17:48:57.798,-1.71498,-1.13143,-0.0241254,0,0,0,-1.71498,-1.13143,-0.0241254
 17:48:57.799,-1.71444,-1.13154,-0.0243105,0,0,0,-1.71444,-1.13154,-0.0243105
 17:48:57.799,-1.71393,-1.13164,-0.0245216,0,0,0,-1.71393,-1.13164,-0.0245216
 17:48:57.800,-1.71402,-1.13175,-0.0246658,0,0,0,-1.71402,-1.13175,-0.0246658
 17:48:57.800,-1.71417,-1.13132,-0.0247995,0,0,0,-1.71417,-1.13132,-0.0247995
 17:48:57.800,-1.71486,-1.13146,-0.024877,0,0,0,-1.71486,-1.13146,-0.024877
 17:48:57.801,-1.71551,-1.13159,-0.0249161,0,0,0,-1.71551,-1.13159,-0.0249161
 17:48:57.802,-1.71614,-1.13165,-0.024942,0,0,0,-1.71614,-1.13165,-0.024942
 17:48:57.802,-1.71619,-1.13172,-0.024981,0,0,0,-1.71619,-1.13172,-0.024981
 17:48:57.802,-1.71566,-1.13238,-0.0249764,0,0,0,-1.71566,-1.13238,-0.0249764
 17:48:57.803,-1.71578,-1.13255,-0.0250274,0,0,0,-1.71578,-1.13255,-0.0250274
 17:48:57.803,-1.71642,-1.13276,-0.0251328,0,0,0,-1.71642,-1.13276,-0.0251328
 17:48:57.804,-1.71639,-1.13348,-0.0252101,0,0,0,-1.71639,-1.13348,-0.0252101
 17:48:57.805,-1.71579,-1.1336,-0.025212,0,0,0,-1.71579,-1.1336,-0.025212
 17:48:57.805,-1.71637,-1.13372,-0.0252401,0,0,0,-1.71637,-1.13372,-0.0252401
 17:48:57.806,-1.71645,-1.1344,-0.0253013,0,0,0,-1.71645,-1.1344,-0.0253013
 17:48:57.806,-1.71711,-1.13447,-0.0254198,0,0,0,-1.71711,-1.13447,-0.0254198
 17:48:57.806,-1.71713,-1.13397,-0.0255832,0,0,0,-1.71713,-1.13397,-0.0255832
 17:48:57.807,-1.71776,-1.13354,-0.0257329,0,0,0,-1.71776,-1.13354,-0.0257329
 17:48:57.808,-1.71839,-1.13314,-0.0258422,0,0,0,-1.71839,-1.13314,-0.0258422
 17:48:57.808,-1.71841,-1.13221,-0.0258508,0,0,0,-1.71841,-1.13221,-0.0258508
 17:48:57.809,-1.71838,-1.13179,-0.0258693,0,0,0,-1.71838,-1.13179,-0.0258693
 17:48:57.809,-1.71836,-1.1308,-0.0259311,0,0,0,-1.71836,-1.1308,-0.0259311
 17:48:57.809,-1.71891,-1.13047,-0.0259891,0,0,0,-1.71891,-1.13047,-0.0259891
 17:48:57.810,-1.71772,-1.13006,-0.0260998,0,0,0,-1.71772,-1.13006,-0.0260998
 17:48:57.811,-1.71718,-1.13016,-0.0262312,0,0,0,-1.71718,-1.13016,-0.0262312
 17:48:57.811,-1.71673,-1.13031,-0.0262682,0,0,0,-1.71673,-1.13031,-0.0262682
 17:48:57.812,-1.71631,-1.13054,-0.026357,0,0,0,-1.71631,-1.13054,-0.026357
 17:48:57.812,-1.71587,-1.13074,-0.0265131,0,0,0,-1.71587,-1.13074,-0.0265131
 17:48:57.812,-1.71592,-1.13087,-0.026671,0,0,0,-1.71592,-1.13087,-0.026671
 17:48:57.813,-1.71537,-1.13099,-0.0267638,0,0,0,-1.71537,-1.13099,-0.0267638
 17:48:57.813,-1.71538,-1.13107,-0.026817,0,0,0,-1.71538,-1.13107,-0.026817
 17:48:57.814,-1.7154,-1.13118,-0.0268571,0,0,0,-1.7154,-1.13118,-0.0268571
 17:48:57.815,-1.71545,-1.13072,-0.0269137,0,0,0,-1.71545,-1.13072,-0.0269137
 17:48:57.815,-1.71556,-1.13025,-0.027074,0,0,0,-1.71556,-1.13025,-0.027074
 17:48:57.815,-1.71568,-1.12984,-0.0271816,0,0,0,-1.71568,-1.12984,-0.0271816
 17:48:57.816,-1.71575,-1.13011,-0.0271806,0,0,0,-1.71575,-1.13011,-0.0271806
 17:48:57.816,-1.71524,-1.12982,-0.0273429,0,0,0,-1.71524,-1.12982,-0.0273429
 17:48:57.817,-1.71473,-1.13056,-0.0274966,0,0,0,-1.71473,-1.13056,-0.0274966
 17:48:57.818,-1.71426,-1.13065,-0.0275345,0,0,0,-1.71426,-1.13065,-0.0275345
 17:48:57.818,-1.71376,-1.13078,-0.0275996,0,0,0,-1.71376,-1.13078,-0.0275996
 17:48:57.818,-1.71326,-1.13097,-0.0277049,0,0,0,-1.71326,-1.13097,-0.0277049
 17:48:57.819,-1.71337,-1.13175,-0.0277923,0,0,0,-1.71337,-1.13175,-0.0277923
 17:48:57.819,-1.71352,-1.13252,-0.0278128,0,0,0,-1.71352,-1.13252,-0.0278128
 17:48:57.820,-1.71367,-1.13324,-0.0277673,0,0,0,-1.71367,-1.13324,-0.0277673
 17:48:57.821,-1.71382,-1.13396,-0.0278542,0,0,0,-1.71382,-1.13396,-0.0278542
 17:48:57.821,-1.7139,-1.13412,-0.0280793,0,0,0,-1.7139,-1.13412,-0.0280793
 17:48:57.822,-1.71396,-1.13423,-0.0282519,0,0,0,-1.71396,-1.13423,-0.0282519
 17:48:57.822,-1.71343,-1.1337,-0.0283494,0,0,0,-1.71343,-1.1337,-0.0283494
 17:48:57.822,-1.7135,-1.13321,-0.0285388,0,0,0,-1.7135,-1.13321,-0.0285388
 17:48:57.823,-1.71356,-1.13218,-0.0287189,0,0,0,-1.71356,-1.13218,-0.0287189
 17:48:57.824,-1.71361,-1.1312,-0.0287935,0,0,0,-1.71361,-1.1312,-0.0287935
 17:48:57.824,-1.71368,-1.13077,-0.0288766,0,0,0,-1.71368,-1.13077,-0.0288766
 17:48:57.825,-1.71377,-1.13029,-0.0289987,0,0,0,-1.71377,-1.13029,-0.0289987
 17:48:57.825,-1.7138,-1.12983,-0.0291218,0,0,0,-1.7138,-1.12983,-0.0291218
 17:48:57.825,-1.71384,-1.12942,-0.029192,0,0,0,-1.71384,-1.12942,-0.029192
 17:48:57.826,-1.71387,-1.12901,-0.0292488,0,0,0,-1.71387,-1.12901,-0.0292488
 17:48:57.827,-1.7133,-1.12915,-0.0293025,0,0,0,-1.7133,-1.12915,-0.0293025
 17:48:57.827,-1.71332,-1.12872,-0.0293995,0,0,0,-1.71332,-1.12872,-0.0293995
 17:48:57.828,-1.71278,-1.12829,-0.0295221,0,0,0,-1.71278,-1.12829,-0.0295221
 17:48:57.828,-1.71289,-1.12787,-0.0295507,0,0,0,-1.71289,-1.12787,-0.0295507
 17:48:57.828,-1.713,-1.12746,-0.0296582,0,0,0,-1.713,-1.12746,-0.0296582
 17:48:57.829,-1.71309,-1.12766,-0.0298155,0,0,0,-1.71309,-1.12766,-0.0298155
 17:48:57.829,-1.71373,-1.12731,-0.0299507,0,0,0,-1.71373,-1.12731,-0.0299507
 17:48:57.830,-1.71324,-1.12751,-0.0299887,0,0,0,-1.71324,-1.12751,-0.0299887
 17:48:57.831,-1.71272,-1.12769,-0.0300409,0,0,0,-1.71272,-1.12769,-0.0300409
 17:48:57.831,-1.71223,-1.12789,-0.0301719,0,0,0,-1.71223,-1.12789,-0.0301719
 17:48:57.832,-1.71174,-1.12813,-0.0303028,0,0,0,-1.71174,-1.12813,-0.0303028
 17:48:57.832,-1.71177,-1.12833,-0.0304882,0,0,0,-1.71177,-1.12833,-0.0304882
 17:48:57.832,-1.71187,-1.12852,-0.0307117,0,0,0,-1.71187,-1.12852,-0.0307117
 17:48:57.833,-1.71202,-1.12875,-0.0308152,0,0,0,-1.71202,-1.12875,-0.0308152
 17:48:57.834,-1.71274,-1.12898,-0.0308391,0,0,0,-1.71274,-1.12898,-0.0308391
 17:48:57.834,-1.71223,-1.12855,-0.0308954,0,0,0,-1.71223,-1.12855,-0.0308954
 17:48:57.834,-1.7123,-1.12809,-0.0310571,0,0,0,-1.7123,-1.12809,-0.0310571
 17:48:57.835,-1.7118,-1.12763,-0.0312316,0,0,0,-1.7118,-1.12763,-0.0312316
 17:48:57.835,-1.71187,-1.12723,-0.0313004,0,0,0,-1.71187,-1.12723,-0.0313004
 17:48:57.836,-1.71133,-1.1269,-0.031397,0,0,0,-1.71133,-1.1269,-0.031397
 17:48:57.837,-1.71082,-1.12707,-0.0315813,0,0,0,-1.71082,-1.12707,-0.0315813
 17:48:57.837,-1.71093,-1.12662,-0.0316494,0,0,0,-1.71093,-1.12662,-0.0316494
 17:48:57.838,-1.71104,-1.12677,-0.0316207,0,0,0,-1.71104,-1.12677,-0.0316207
 17:48:57.838,-1.71118,-1.12693,-0.0316575,0,0,0,-1.71118,-1.12693,-0.0316575
 17:48:57.838,-1.71185,-1.12707,-0.0317746,0,0,0,-1.71185,-1.12707,-0.0317746
 17:48:57.839,-1.71195,-1.12727,-0.0319182,0,0,0,-1.71195,-1.12727,-0.0319182
 17:48:57.840,-1.71204,-1.1269,-0.0319735,0,0,0,-1.71204,-1.1269,-0.0319735
 17:48:57.840,-1.71211,-1.12652,-0.0319366,0,0,0,-1.71211,-1.12652,-0.0319366
 17:48:57.841,-1.71157,-1.12557,-0.0320494,0,0,0,-1.71157,-1.12557,-0.0320494
 17:48:57.841,-1.71164,-1.12464,-0.0322675,0,0,0,-1.71164,-1.12464,-0.0322675
 17:48:57.841,-1.71172,-1.12428,-0.0324012,0,0,0,-1.71172,-1.12428,-0.0324012
 17:48:57.842,-1.71238,-1.12452,-0.0324251,0,0,0,-1.71238,-1.12452,-0.0324251
 17:48:57.843,-1.71247,-1.12424,-0.0324667,0,0,0,-1.71247,-1.12424,-0.0324667
 17:48:57.843,-1.71199,-1.12458,-0.0324643,0,0,0,-1.71199,-1.12458,-0.0324643
 17:48:57.844,-1.71206,-1.12491,-0.0324496,0,0,0,-1.71206,-1.12491,-0.0324496
 17:48:57.844,-1.71214,-1.12461,-0.032597,0,0,0,-1.71214,-1.12461,-0.032597
 17:48:57.845,-1.71167,-1.12546,-0.0327227,0,0,0,-1.71167,-1.12546,-0.0327227
 17:48:57.845,-1.71118,-1.12632,-0.0327568,0,0,0,-1.71118,-1.12632,-0.0327568
 17:48:57.845,-1.71067,-1.12655,-0.032822,0,0,0,-1.71067,-1.12655,-0.032822
 17:48:57.846,-1.71074,-1.12671,-0.0329267,0,0,0,-1.71074,-1.12671,-0.0329267
 17:48:57.847,-1.71077,-1.12688,-0.0330322,0,0,0,-1.71077,-1.12688,-0.0330322
 17:48:57.847,-1.71138,-1.12712,-0.0331117,0,0,0,-1.71138,-1.12712,-0.0331117
 17:48:57.848,-1.71148,-1.12683,-0.0331935,0,0,0,-1.71148,-1.12683,-0.0331935
 17:48:57.848,-1.7116,-1.12651,-0.0333143,0,0,0,-1.7116,-1.12651,-0.0333143
 17:48:57.848,-1.71169,-1.12669,-0.0333788,0,0,0,-1.71169,-1.12669,-0.0333788
 17:48:57.849,-1.71176,-1.12747,-0.0334398,0,0,0,-1.71176,-1.12747,-0.0334398
 17:48:57.850,-1.71183,-1.12769,-0.0335444,0,0,0,-1.71183,-1.12769,-0.0335444
 17:48:57.850,-1.71188,-1.12784,-0.0336762,0,0,0,-1.71188,-1.12784,-0.0336762
 17:48:57.851,-1.71197,-1.12799,-0.0337277,0,0,0,-1.71197,-1.12799,-0.0337277
 17:48:57.851,-1.71205,-1.12815,-0.0337527,0,0,0,-1.71205,-1.12815,-0.0337527
 17:48:57.851,-1.71211,-1.12834,-0.0337522,0,0,0,-1.71211,-1.12834,-0.0337522
 17:48:57.852,-1.71206,-1.1285,-0.0337675,0,0,0,-1.71206,-1.1285,-0.0337675
 17:48:57.853,-1.71201,-1.12866,-0.0337828,0,0,0,-1.71201,-1.12866,-0.0337828
 17:48:57.853,-1.71212,-1.12888,-0.0339266,0,0,0,-1.71212,-1.12888,-0.0339266
 17:48:57.854,-1.69498,-1.12916,-0.0339918,0,0,0,-1.71221,-1.12916,-0.0339918
 17:48:57.854,-2.4958,-1.12923,-0.0340252,0,0,0,-2.5129,-1.12923,-0.0340252
 17:48:57.855,-2.48797,-1.12936,-0.0340768,0,0,0,-2.50491,-1.12936,-0.0340767
 17:48:57.855,-2.48026,-1.12944,-0.0341404,0,0,0,-2.49702,-1.12944,-0.0341402
 17:48:57.856,-2.47262,-1.12953,-0.034204,0,0,0,-2.48922,-1.12953,-0.0342038
 17:48:57.856,-2.46505,-1.12961,-0.0342677,0,0,0,-2.48149,-1.12961,-0.0342675
 17:48:57.857,-2.45765,-1.12981,-0.0342767,0,0,0,-2.47391,-1.12981,-0.0342764
 17:48:57.857,-2.45031,-1.13001,-0.0342857,0,0,0,-2.46642,-1.13001,-0.0342854
 17:48:57.858,-2.44248,-1.13021,-0.0342949,0,0,0,-2.45843,-1.13021,-0.0342946
 17:48:57.858,-2.43524,-1.12982,-0.0343963,0,0,0,-2.45103,-1.12982,-0.034396
 17:48:57.859,-2.41088,-1.12941,-0.0345372,0,0,0,-2.44369,-1.12941,-0.0345372
 17:48:57.859,-3.2065,-1.12948,-0.0345707,0,0,0,-3.23907,-1.12948,-0.0345706
 17:48:57.860,-3.19153,-1.12963,-0.0346211,0,0,0,-3.22377,-1.12963,-0.034621
 17:48:57.860,-3.17671,-1.12977,-0.0346717,0,0,0,-3.20863,-1.12977,-0.0346714
 17:48:57.861,-3.14486,-1.12992,-0.0347224,0,0,0,-3.19364,-1.12992,-0.0347221
 17:48:57.861,-3.93511,-1.12999,-0.0347559,0,0,0,-3.98354,-1.12999,-0.0347555
 17:48:57.861,-3.91364,-1.13025,-0.0347992,0,0,0,-3.96158,-1.13025,-0.0347987
 17:48:57.862,-3.89238,-1.1305,-0.0348428,0,0,0,-3.93984,-1.1305,-0.0348421
 17:48:57.863,-3.87133,-1.13075,-0.0348866,0,0,0,-3.91832,-1.13075,-0.0348858
 17:48:57.863,-3.85049,-1.131,-0.0349307,0,0,0,-3.89701,-1.13099,-0.0349297
 17:48:57.864,-3.82987,-1.13124,-0.0349749,0,0,0,-3.87592,-1.13124,-0.0349738
 17:48:57.864,-3.80887,-1.13148,-0.0350194,0,0,0,-3.85446,-1.13148,-0.0350182
 17:48:57.864,-3.788,-1.13162,-0.0350401,0,0,0,-3.83313,-1.13162,-0.0350388
 17:48:57.865,-3.76733,-1.13176,-0.035061,0,0,0,-3.81201,-1.13176,-0.0350595
 17:48:57.866,-3.74687,-1.1319,-0.0350819,0,0,0,-3.79111,-1.1319,-0.0350804
 17:48:57.866,-3.72662,-1.13204,-0.0351031,0,0,0,-3.77041,-1.13204,-0.0351014
 17:48:57.867,-3.70657,-1.13218,-0.0351243,0,0,0,-3.74992,-1.13218,-0.0351226
 17:48:57.867,-3.68672,-1.13231,-0.0351457,0,0,0,-3.72964,-1.13231,-0.0351438
 17:48:57.867,-3.66706,-1.13245,-0.0351672,0,0,0,-3.70956,-1.13245,-0.0351653
 17:48:57.868,-3.64761,-1.13258,-0.0351889,0,0,0,-3.68967,-1.13258,-0.0351868
 17:48:57.869,-3.62835,-1.13271,-0.0352107,0,0,0,-3.66999,-1.13271,-0.0352085
 17:48:57.869,-3.60928,-1.13284,-0.0352326,0,0,0,-3.65051,-1.13284,-0.0352303
 17:48:57.870,-3.5904,-1.13297,-0.0352546,0,0,0,-3.63122,-1.13297,-0.0352523
 17:48:57.870,-3.57171,-1.1331,-0.0352768,0,0,0,-3.61212,-1.1331,-0.0352744
 17:48:57.871,-3.55321,-1.13322,-0.0352991,0,0,0,-3.59321,-1.13322,-0.0352965
 17:48:57.871,-3.53489,-1.13335,-0.0353215,0,0,0,-3.57449,-1.13335,-0.0353189
 17:48:57.872,-3.51675,-1.13347,-0.035344,0,0,0,-3.55596,-1.13347,-0.0353413
 17:48:57.872,-3.4988,-1.13359,-0.0353666,0,0,0,-3.53762,-1.13359,-0.0353638
 17:48:57.873,-3.48103,-1.13371,-0.0353894,0,0,0,-3.51946,-1.13371,-0.0353865
 17:48:57.873,-3.46343,-1.13383,-0.0354122,0,0,0,-3.50148,-1.13383,-0.0354093
 17:48:57.874,-3.44601,-1.13395,-0.0354352,0,0,0,-3.48368,-1.13395,-0.0354322
 17:48:57.874,-3.42877,-1.13407,-0.0354582,0,0,0,-3.46605,-1.13407,-0.0354551
 17:48:57.875,-3.41169,-1.13419,-0.0354814,0,0,0,-3.44861,-1.13418,-0.0354782
 17:48:57.875,-3.39479,-1.1343,-0.0355047,0,0,0,-3.43134,-1.1343,-0.0355014
 17:48:57.876,-3.37806,-1.13441,-0.0355281,0,0,0,-3.41424,-1.13441,-0.0355248
 17:48:57.876,-3.36149,-1.13453,-0.0355516,0,0,0,-3.39731,-1.13453,-0.0355482
 17:48:57.877,-3.34509,-1.13464,-0.0355751,0,0,0,-3.38055,-1.13464,-0.0355717
 17:48:57.877,-3.32885,-1.13475,-0.0355988,0,0,0,-3.36396,-1.13475,-0.0355953
 17:48:57.877,-3.31278,-1.13486,-0.0356226,0,0,0,-3.34753,-1.13486,-0.035619
 17:48:57.878,-3.29686,-1.13497,-0.0356464,0,0,0,-3.33127,-1.13497,-0.0356428
 17:48:57.879,-3.28111,-1.13507,-0.0356704,0,0,0,-3.31517,-1.13507,-0.0356667
 17:48:57.879,-3.26551,-1.13518,-0.0356944,0,0,0,-3.29924,-1.13518,-0.0356907
 17:48:57.880,-3.25007,-1.13529,-0.0357186,0,0,0,-3.28346,-1.13528,-0.0357147
 17:48:57.880,-3.23479,-1.13539,-0.0357428,0,0,0,-3.26784,-1.13539,-0.0357389
 17:48:57.881,-3.21963,-1.1361,-0.0357354,0,0,0,-3.25235,-1.1361,-0.0357311
 17:48:57.881,-3.20463,-1.13681,-0.0357286,0,0,0,-3.23702,-1.13681,-0.0357239
 17:48:57.882,-3.18978,-1.13742,-0.035788,0,0,0,-3.22185,-1.13742,-0.0357829
 17:48:57.882,-3.1751,-1.1375,-0.0358,0,0,0,-3.20685,-1.1375,-0.0357949
 17:48:57.883,-3.16057,-1.13758,-0.0358122,0,0,0,-3.192,-1.13758,-0.035807
 17:48:57.883,-3.14618,-1.13766,-0.0358244,0,0,0,-3.1773,-1.13766,-0.0358192
 17:48:57.884,-3.13197,-1.1372,-0.0359337,0,0,0,-3.16277,-1.1372,-0.0359288
 17:48:57.884,-3.11783,-1.13675,-0.0359776,0,0,0,-3.14833,-1.13675,-0.0359728
 17:48:57.885,-3.10381,-1.13631,-0.0360616,0,0,0,-3.13401,-1.13631,-0.0360571
 17:48:57.885,-3.08999,-1.13584,-0.0361835,0,0,0,-3.11988,-1.13584,-0.0361792
 17:48:57.886,-3.07632,-1.13587,-0.0362472,0,0,0,-3.10592,-1.13587,-0.0362429
 17:48:57.886,-3.06275,-1.13532,-0.0363162,0,0,0,-3.09204,-1.13532,-0.0363122
 17:48:57.887,-3.04928,-1.13534,-0.036461,0,0,0,-3.07829,-1.13534,-0.0364569
 17:48:57.887,-3.03601,-1.1354,-0.0365782,0,0,0,-3.06472,-1.1354,-0.036574
 17:48:57.888,-3.02292,-1.13497,-0.036684,0,0,0,-3.05135,-1.13497,-0.0366801
 17:48:57.888,-3.00994,-1.13454,-0.0367641,0,0,0,-3.03809,-1.13453,-0.0367604
 17:48:57.889,-2.99704,-1.13523,-0.036838,0,0,0,-3.0249,-1.13523,-0.036834
 17:48:57.889,-2.98487,-1.13479,-0.0369978,0,0,0,-3.01245,-1.13479,-0.036994
 17:48:57.890,-2.97228,-1.13434,-0.0370898,0,0,0,-2.99959,-1.13434,-0.0370862
 17:48:57.890,-2.95982,-1.1339,-0.0371685,0,0,0,-2.98686,-1.1339,-0.0371651
 17:48:57.891,-2.94748,-1.1335,-0.0373271,0,0,0,-2.97424,-1.1335,-0.0373239
 17:48:57.891,-2.9352,-1.13367,-0.0374443,0,0,0,-2.96169,-1.13367,-0.037441
 17:48:57.892,-2.92247,-1.13382,-0.0374817,0,0,0,-2.9487,-1.13381,-0.0374783
 17:48:57.892,-2.91045,-1.13394,-0.0375454,0,0,0,-2.93642,-1.13394,-0.037542
 17:48:57.893,-2.89859,-1.1346,-0.0376717,0,0,0,-2.92429,-1.1346,-0.0376679
 17:48:57.893,-2.88682,-1.13466,-0.0377616,0,0,0,-2.91228,-1.13465,-0.0377578
 17:48:57.893,-2.87572,-1.13471,-0.0377595,0,0,0,-2.90092,-1.13471,-0.0377556
 17:48:57.894,-2.86478,-1.13539,-0.0378198,0,0,0,-2.88973,-1.13539,-0.0378156
 17:48:57.895,-2.85281,-1.13546,-0.0380414,0,0,0,-2.87751,-1.13545,-0.0380372
 17:48:57.895,-2.84151,-1.13496,-0.0382265,0,0,0,-2.86596,-1.13496,-0.0382224
 17:48:57.896,-2.83088,-1.13519,-0.038225,0,0,0,-2.85508,-1.13519,-0.0382209
 17:48:57.896,-2.81976,-1.13484,-0.0382787,0,0,0,-2.84373,-1.13484,-0.0382747
 17:48:57.897,-2.80883,-1.135,-0.0384077,0,0,0,-2.83255,-1.135,-0.0384037
 17:48:57.897,-2.79799,-1.13456,-0.0385651,0,0,0,-2.82148,-1.13456,-0.0385614
 17:48:57.898,-2.78662,-1.13469,-0.0385245,0,0,0,-2.80987,-1.13469,-0.0385206
 17:48:57.898,-2.77591,-1.13474,-0.0384974,0,0,0,-2.79893,-1.13473,-0.0384935
 17:48:57.899,-2.76532,-1.13479,-0.0385626,0,0,0,-2.78811,-1.13479,-0.0385587
 17:48:57.899,-2.7543,-1.13492,-0.0386932,0,0,0,-2.77686,-1.13492,-0.0386892
 17:48:57.900,-2.74393,-1.13503,-0.0388114,0,0,0,-2.76626,-1.13503,-0.0388074
 17:48:57.900,-2.73361,-1.13456,-0.0388794,0,0,0,-2.75572,-1.13456,-0.0388755
 17:48:57.901,-2.72339,-1.13468,-0.0389068,0,0,0,-2.74528,-1.13468,-0.0389028
 17:48:57.901,-2.71279,-1.13424,-0.0390647,0,0,0,-2.73446,-1.13424,-0.0390609
 17:48:57.902,-2.70231,-1.13383,-0.039235,0,0,0,-2.72376,-1.13383,-0.0392314
 17:48:57.902,-2.69195,-1.13349,-0.0393126,0,0,0,-2.71319,-1.13349,-0.0393092
 17:48:57.903,-2.68169,-1.13314,-0.0394164,0,0,0,-2.70272,-1.13314,-0.0394131
 17:48:57.903,-2.67212,-1.13276,-0.039559,0,0,0,-2.69294,-1.13276,-0.0395559
 17:48:57.904,-2.66265,-1.13295,-0.0396216,0,0,0,-2.68326,-1.13295,-0.0396184
 17:48:57.904,-2.65328,-1.13317,-0.039618,0,0,0,-2.67369,-1.13316,-0.0396147
 17:48:57.905,-2.64401,-1.13338,-0.039628,0,0,0,-2.66421,-1.13338,-0.0396247
 17:48:57.905,-2.63481,-1.13295,-0.0397046,0,0,0,-2.65481,-1.13295,-0.0397015
 17:48:57.906,-2.62568,-1.13248,-0.0397547,0,0,0,-2.64548,-1.13247,-0.0397517
 17:48:57.906,-2.61606,-1.13203,-0.0397782,0,0,0,-2.63566,-1.13203,-0.0397754
 17:48:57.907,-2.6065,-1.13221,-0.0398034,0,0,0,-2.62591,-1.13221,-0.0398005
 17:48:57.907,-2.59761,-1.13244,-0.0398418,0,0,0,-2.61682,-1.13244,-0.0398388
 17:48:57.908,-2.58884,-1.13202,-0.0398656,0,0,0,-2.60786,-1.13202,-0.0398628
 17:48:57.908,-2.58015,-1.13216,-0.0399031,0,0,0,-2.59898,-1.13216,-0.0399002
 17:48:57.909,-2.57211,-1.13176,-0.0399802,0,0,0,-2.59074,-1.13176,-0.0399775
 17:48:57.909,-2.5636,-1.13193,-0.0400434,0,0,0,-2.58206,-1.13193,-0.0400406
 17:48:57.909,-2.55462,-1.13206,-0.0400936,0,0,0,-2.57289,-1.13206,-0.0400908
 17:48:57.910,-2.54627,-1.13215,-0.0400914,0,0,0,-2.56436,-1.13215,-0.0400886
 17:48:57.911,-2.53799,-1.13228,-0.0401959,0,0,0,-2.55589,-1.13228,-0.040193
 17:48:57.911,-2.52983,-1.133,-0.0404061,0,0,0,-2.54756,-1.13299,-0.040403
 17:48:57.912,-2.52171,-1.1331,-0.0405375,0,0,0,-2.53926,-1.13309,-0.0405344
 17:48:57.912,-2.51367,-1.13321,-0.0406292,0,0,0,-2.53104,-1.13321,-0.040626
 17:48:57.913,-2.50633,-1.13333,-0.0407462,0,0,0,-2.52353,-1.13333,-0.0407429
 17:48:57.913,-2.49854,-1.13406,-0.0407969,0,0,0,-2.51556,-1.13406,-0.0407934
 17:48:57.914,-2.49013,-1.13364,-0.040888,0,0,0,-2.50699,-1.13364,-0.0408847
 17:48:57.914,-2.48173,-1.13319,-0.0409814,0,0,0,-2.49841,-1.13319,-0.0409782
 17:48:57.915,-2.47398,-1.13331,-0.0410362,0,0,0,-2.49051,-1.13331,-0.041033
 17:48:57.915,-2.46632,-1.13341,-0.0410913,0,0,0,-2.48267,-1.13341,-0.0410881
 17:48:57.916,-2.45822,-1.13349,-0.0411712,0,0,0,-2.47441,-1.13349,-0.0411679
 17:48:57.916,-2.45085,-1.13413,-0.0412774,0,0,0,-2.46688,-1.13413,-0.0412739
 17:48:57.917,-2.44354,-1.13424,-0.0413561,0,0,0,-2.45941,-1.13424,-0.0413526
 17:48:57.917,-2.43628,-1.13495,-0.0414241,0,0,0,-2.45199,-1.13495,-0.0414204
 17:48:57.918,-2.42907,-1.13564,-0.0415725,0,0,0,-2.44463,-1.13564,-0.0415686
 17:48:57.918,-2.42198,-1.13572,-0.041731,0,0,0,-2.43738,-1.13572,-0.0417271
 17:48:57.919,-2.41491,-1.13525,-0.0418356,0,0,0,-2.43015,-1.13525,-0.0418318
 17:48:57.919,-2.40795,-1.13539,-0.0419284,0,0,0,-2.42304,-1.13539,-0.0419246
 17:48:57.920,-2.40049,-1.13492,-0.0420843,0,0,0,-2.41544,-1.13492,-0.0420806
 17:48:57.920,-2.39373,-1.13443,-0.0421729,0,0,0,-2.40852,-1.13443,-0.0421693
 17:48:57.921,-2.38755,-1.13399,-0.0421439,0,0,0,-2.40219,-1.13399,-0.0421405
 17:48:57.921,-2.38143,-1.13361,-0.0422069,0,0,0,-2.39593,-1.13361,-0.0422035
 17:48:57.922,-2.37484,-1.13318,-0.0422949,0,0,0,-2.3892,-1.13318,-0.0422917
 17:48:57.922,-2.36836,-1.13331,-0.0423182,0,0,0,-2.38257,-1.1333,-0.0423149
 17:48:57.923,-2.36193,-1.13342,-0.0423155,0,0,0,-2.376,-1.13341,-0.0423122
 17:48:57.923,-2.35548,-1.13349,-0.0423679,0,0,0,-2.3694,-1.13349,-0.0423646
 17:48:57.924,-2.34853,-1.133,-0.0424832,0,0,0,-2.36232,-1.13299,-0.04248
 17:48:57.924,-2.3428,-1.13256,-0.0425987,0,0,0,-2.35645,-1.13256,-0.0425956
 17:48:57.925,-2.33652,-1.13274,-0.0427049,0,0,0,-2.35003,-1.13274,-0.0427017
 17:48:57.925,-2.32974,-1.13287,-0.0427838,0,0,0,-2.34312,-1.13287,-0.0427806
 17:48:57.926,-2.32305,-1.13235,-0.0428591,0,0,0,-2.3363,-1.13235,-0.042856
 17:48:57.926,-2.31703,-1.13238,-0.0429499,0,0,0,-2.33014,-1.13238,-0.0429467
 17:48:57.927,-2.31107,-1.13302,-0.043004,0,0,0,-2.32405,-1.13302,-0.0430007
 17:48:57.927,-2.30521,-1.13376,-0.0430842,0,0,0,-2.31806,-1.13376,-0.0430808
 17:48:57.928,-2.29945,-1.1346,-0.0431509,0,0,0,-2.31217,-1.1346,-0.0431473
 17:48:57.928,-2.2937,-1.13543,-0.0431929,0,0,0,-2.30629,-1.13543,-0.0431892
 17:48:57.929,-2.28795,-1.13609,-0.0432231,0,0,0,-2.30042,-1.13609,-0.0432192
 17:48:57.930,-2.28229,-1.13671,-0.0432393,0,0,0,-2.29463,-1.13671,-0.0432353
 17:48:57.930,-2.27669,-1.13683,-0.0432784,0,0,0,-2.28892,-1.13683,-0.0432744
 17:48:57.930,-2.27113,-1.13638,-0.0434339,0,0,0,-2.28323,-1.13638,-0.04343
 17:48:57.931,-2.26562,-1.13593,-0.0436025,0,0,0,-2.2776,-1.13593,-0.0435986
 17:48:57.931,-2.26073,-1.1349,-0.0437539,0,0,0,-2.27259,-1.13489,-0.0437503
 17:48:57.932,-2.25592,-1.13382,-0.0438247,0,0,0,-2.26766,-1.13381,-0.0438212
 17:48:57.932,-2.2506,-1.13327,-0.0439114,0,0,0,-2.26222,-1.13326,-0.043908
 17:48:57.933,-2.24532,-1.13336,-0.0440021,0,0,0,-2.25682,-1.13336,-0.0439987
 17:48:57.933,-2.24006,-1.13354,-0.044041,0,0,0,-2.25145,-1.13353,-0.0440376
 17:48:57.934,-2.23488,-1.13375,-0.0440136,0,0,0,-2.24616,-1.13375,-0.0440101
 17:48:57.934,-2.2292,-1.13396,-0.0440783,0,0,0,-2.24036,-1.13396,-0.0440748
 17:48:57.935,-2.22413,-1.13407,-0.044196,0,0,0,-2.23518,-1.13407,-0.0441925
 17:48:57.935,-2.21856,-1.13359,-0.0442694,0,0,0,-2.2295,-1.13358,-0.0442659
 17:48:57.936,-2.21364,-1.13431,-0.0442445,0,0,0,-2.22448,-1.13431,-0.044241
 17:48:57.936,-2.20819,-1.13447,-0.0443484,0,0,0,-2.21892,-1.13447,-0.0443448
 17:48:57.937,-2.20277,-1.13461,-0.0445191,0,0,0,-2.21339,-1.13461,-0.0445154
 17:48:57.937,-2.19795,-1.13472,-0.0445844,0,0,0,-2.20846,-1.13472,-0.0445807
 17:48:57.938,-2.19259,-1.13484,-0.044637,0,0,0,-2.203,-1.13484,-0.0446333
 17:48:57.938,-2.18725,-1.13495,-0.0447171,0,0,0,-2.19755,-1.13495,-0.0447134
 17:48:57.939,-2.18256,-1.13449,-0.0448185,0,0,0,-2.19276,-1.13448,-0.0448149
 17:48:57.939,-2.17791,-1.13399,-0.0449198,0,0,0,-2.18801,-1.13398,-0.0449163
 17:48:57.940,-2.1739,-1.13408,-0.0449457,0,0,0,-2.1839,-1.13408,-0.0449421
 17:48:57.940,-2.16937,-1.13358,-0.0450326,0,0,0,-2.17927,-1.13358,-0.0450291
 17:48:57.941,-2.16492,-1.13368,-0.0451629,0,0,0,-2.17472,-1.13368,-0.0451593
 17:48:57.941,-2.15996,-1.13379,-0.0452002,0,0,0,-2.16966,-1.13379,-0.0451966
 17:48:57.942,-2.15624,-1.13391,-0.0452496,0,0,0,-2.16585,-1.13391,-0.045246
 17:48:57.942,-2.15198,-1.13346,-0.0454136,0,0,0,-2.16148,-1.13346,-0.0454101
 17:48:57.943,-2.1477,-1.13357,-0.0455575,0,0,0,-2.15711,-1.13357,-0.045554
 17:48:57.943,-2.14345,-1.13369,-0.0455825,0,0,0,-2.15277,-1.13369,-0.045579
 17:48:57.944,-2.13925,-1.13383,-0.0455812,0,0,0,-2.14847,-1.13383,-0.0455776
 17:48:57.944,-2.13512,-1.13345,-0.0456666,0,0,0,-2.14425,-1.13345,-0.0456631
 17:48:57.945,-2.13097,-1.13361,-0.0456929,0,0,0,-2.14001,-1.13361,-0.0456893
 17:48:57.946,-2.12623,-1.13317,-0.0457551,0,0,0,-2.13518,-1.13317,-0.0457516
 17:48:57.946,-2.12212,-1.13329,-0.0458215,0,0,0,-2.13098,-1.13329,-0.045818
 17:48:57.946,-2.11814,-1.13344,-0.045873,0,0,0,-2.12691,-1.13344,-0.0458695
 17:48:57.947,-2.11425,-1.13307,-0.0460106,0,0,0,-2.12293,-1.13307,-0.0460071
 17:48:57.947,-2.10979,-1.13327,-0.0461808,0,0,0,-2.11838,-1.13327,-0.0461773
 17:48:57.948,-2.1053,-1.1334,-0.046313,0,0,0,-2.11381,-1.1334,-0.0463095
 17:48:57.949,-2.10139,-1.1335,-0.0464064,0,0,0,-2.10982,-1.1335,-0.0464029
 17:48:57.949,-2.09758,-1.13363,-0.0464988,0,0,0,-2.10592,-1.13363,-0.0464952
 17:48:57.949,-2.09321,-1.13315,-0.0465862,0,0,0,-2.10146,-1.13315,-0.0465828
 17:48:57.950,-2.08891,-1.13326,-0.0466649,0,0,0,-2.09708,-1.13326,-0.0466614
 17:48:57.950,-2.08523,-1.13282,-0.0467775,0,0,0,-2.09332,-1.13282,-0.0467741
 17:48:57.951,-2.0816,-1.13301,-0.0468556,0,0,0,-2.08961,-1.13301,-0.0468522
 17:48:57.951,-2.07856,-1.13322,-0.0469081,0,0,0,-2.0865,-1.13322,-0.0469047
 17:48:57.952,-2.07497,-1.13336,-0.0470136,0,0,0,-2.08283,-1.13335,-0.0470101
 17:48:57.952,-2.07082,-1.13286,-0.0471539,0,0,0,-2.07859,-1.13286,-0.0471505
 17:48:57.953,-2.0673,-1.13238,-0.0472401,0,0,0,-2.075,-1.13238,-0.0472368
 17:48:57.953,-2.0638,-1.13252,-0.0473193,0,0,0,-2.07142,-1.13252,-0.0473159
 17:48:57.954,-2.05973,-1.13268,-0.0474523,0,0,0,-2.06727,-1.13268,-0.0474488
 17:48:57.954,-2.05628,-1.13223,-0.0475526,0,0,0,-2.06375,-1.13223,-0.0475492
 17:48:57.955,-2.05354,-1.13239,-0.0475376,0,0,0,-2.06094,-1.13239,-0.0475342
 17:48:57.955,-2.05031,-1.13255,-0.0476006,0,0,0,-2.05763,-1.13255,-0.0475972
 17:48:57.956,-2.04707,-1.13214,-0.0477114,0,0,0,-2.05431,-1.13214,-0.0477081
 17:48:57.956,-2.04375,-1.13232,-0.0478309,0,0,0,-2.05093,-1.13232,-0.0478276
 17:48:57.957,-2.04043,-1.13192,-0.0479458,0,0,0,-2.04753,-1.13192,-0.0479425
 17:48:57.957,-2.03718,-1.13155,-0.0480325,0,0,0,-2.04422,-1.13155,-0.0480293
 17:48:57.958,-2.03346,-1.13172,-0.0480575,0,0,0,-2.04042,-1.13172,-0.0480542
 17:48:57.959,-2.03037,-1.13183,-0.0481083,0,0,0,-2.03726,-1.13182,-0.048105
 17:48:57.959,-2.02669,-1.13191,-0.0481998,0,0,0,-2.03351,-1.13191,-0.0481965
 17:48:57.959,-2.02357,-1.13202,-0.0482528,0,0,0,-2.03033,-1.13202,-0.0482495
 17:48:57.960,-2.02049,-1.13272,-0.0483916,0,0,0,-2.02718,-1.13271,-0.0483882
 17:48:57.960,-2.01748,-1.13281,-0.0485767,0,0,0,-2.0241,-1.13281,-0.0485733
 17:48:57.961,-2.01448,-1.13286,-0.0486689,0,0,0,-2.02104,-1.13286,-0.0486655
 17:48:57.962,-2.01153,-1.13295,-0.0487084,0,0,0,-2.01802,-1.13295,-0.0487049
 17:48:57.962,-2.00861,-1.13364,-0.0487272,0,0,0,-2.01504,-1.13364,-0.0487237
 17:48:57.962,-2.0051,-1.13378,-0.0487946,0,0,0,-2.01146,-1.13378,-0.048791
 17:48:57.963,-2.00163,-1.13334,-0.0489085,0,0,0,-2.00792,-1.13334,-0.048905
 17:48:57.963,-1.9988,-1.1328,-0.0490473,0,0,0,-2.00503,-1.1328,-0.0490439
 17:48:57.964,-1.99602,-1.13223,-0.0491987,0,0,0,-2.00219,-1.13222,-0.0491953
 17:48:57.965,-1.99384,-1.13236,-0.0493168,0,0,0,-1.99995,-1.13235,-0.0493133
 17:48:57.965,-1.99104,-1.13253,-0.0493973,0,0,0,-1.99708,-1.13252,-0.0493939
 17:48:57.965,-1.98831,-1.13207,-0.0495759,0,0,0,-1.9943,-1.13206,-0.0495725
 17:48:57.966,-1.98561,-1.13216,-0.0497346,0,0,0,-1.99153,-1.13216,-0.0497312
 17:48:57.966,-1.98291,-1.13228,-0.0498671,0,0,0,-1.98878,-1.13228,-0.0498637
 17:48:57.967,-1.98022,-1.13186,-0.0499675,0,0,0,-1.98603,-1.13186,-0.0499641
 17:48:57.967,-1.97703,-1.13149,-0.0500798,0,0,0,-1.98278,-1.13149,-0.0500765
 17:48:57.968,-1.97392,-1.13166,-0.0502103,0,0,0,-1.97961,-1.13166,-0.050207
 17:48:57.968,-1.97143,-1.13184,-0.0503143,0,0,0,-1.97707,-1.13184,-0.050311
 17:48:57.969,-1.96895,-1.13201,-0.0503527,0,0,0,-1.97453,-1.13201,-0.0503493
 17:48:57.969,-1.96706,-1.13217,-0.0504572,0,0,0,-1.97259,-1.13216,-0.0504538
 17:48:57.970,-1.96523,-1.13227,-0.0506001,0,0,0,-1.9707,-1.13227,-0.0505967
 17:48:57.970,-1.96289,-1.13241,-0.0506897,0,0,0,-1.9683,-1.13241,-0.0506863
 17:48:57.971,-1.96052,-1.13254,-0.0509123,0,0,0,-1.96588,-1.13254,-0.0509088
 17:48:57.972,-1.95812,-1.13263,-0.0510838,0,0,0,-1.96342,-1.13263,-0.0510803
 17:48:57.972,-1.95568,-1.13272,-0.0511773,0,0,0,-1.96094,-1.13272,-0.0511738
 17:48:57.972,-1.9533,-1.13287,-0.0512704,0,0,0,-1.9585,-1.13287,-0.0512669
 17:48:57.973,-1.95094,-1.13362,-0.0513042,0,0,0,-1.95609,-1.13362,-0.0513007
 17:48:57.973,-1.9492,-1.1338,-0.0513045,0,0,0,-1.9543,-1.1338,-0.0513009
 17:48:57.974,-1.94749,-1.13396,-0.0513047,0,0,0,-1.95253,-1.13395,-0.0513011
 17:48:57.975,-1.94523,-1.13408,-0.0513972,0,0,0,-1.95022,-1.13408,-0.0513936
 17:48:57.975,-1.94302,-1.13426,-0.0515419,0,0,0,-1.94796,-1.13426,-0.0515383
 17:48:57.975,-1.94082,-1.13442,-0.0517133,0,0,0,-1.94572,-1.13442,-0.0517096
 17:48:57.976,-1.93867,-1.13397,-0.0518371,0,0,0,-1.94352,-1.13397,-0.0518335
 17:48:57.976,-1.93653,-1.13346,-0.0519079,0,0,0,-1.94133,-1.13346,-0.0519044
 17:48:57.977,-1.93439,-1.1335,-0.0519467,0,0,0,-1.93914,-1.1335,-0.0519432
 17:48:57.978,-1.93228,-1.1336,-0.0520517,0,0,0,-1.93699,-1.1336,-0.0520482
 17:48:57.978,-1.92962,-1.13378,-0.0521834,0,0,0,-1.93427,-1.13378,-0.0521798
 17:48:57.979,-1.92754,-1.13339,-0.0523216,0,0,0,-1.93215,-1.13339,-0.0523181
 17:48:57.979,-1.9255,-1.13238,-0.0525183,0,0,0,-1.93006,-1.13238,-0.0525148
 17:48:57.979,-1.92285,-1.13193,-0.0526965,0,0,0,-1.92736,-1.13193,-0.0526931
 17:48:57.980,-1.92078,-1.13091,-0.0528416,0,0,0,-1.92525,-1.13091,-0.0528382
 17:48:57.981,-1.91817,-1.13105,-0.0529471,0,0,0,-1.9226,-1.13104,-0.0529437
 17:48:57.981,-1.91618,-1.13055,-0.0531504,0,0,0,-1.92057,-1.13055,-0.0531471
 17:48:57.982,-1.91423,-1.13063,-0.0533343,0,0,0,-1.91857,-1.13063,-0.0533309
 17:48:57.982,-1.9123,-1.13081,-0.0534123,0,0,0,-1.9166,-1.13081,-0.0534089
 17:48:57.982,-1.90982,-1.131,-0.053517,0,0,0,-1.91407,-1.131,-0.0535136
 17:48:57.983,-1.90794,-1.13115,-0.053648,0,0,0,-1.91215,-1.13114,-0.0536446
 17:48:57.983,-1.90668,-1.13182,-0.0536665,0,0,0,-1.91085,-1.13182,-0.0536631
 17:48:57.984,-1.90489,-1.13256,-0.0536182,0,0,0,-1.90902,-1.13256,-0.0536147
 17:48:57.985,-1.90308,-1.13333,-0.0536509,0,0,0,-1.90717,-1.13333,-0.0536474
 17:48:57.985,-1.90124,-1.1335,-0.0537704,0,0,0,-1.90529,-1.1335,-0.0537668
 17:48:57.985,-1.89878,-1.13427,-0.0538328,0,0,0,-1.90279,-1.13427,-0.0538292
 17:48:57.986,-1.89696,-1.13448,-0.0538872,0,0,0,-1.90093,-1.13448,-0.0538835
 17:48:57.986,-1.89518,-1.13464,-0.0539141,0,0,0,-1.8991,-1.13464,-0.0539105
 17:48:57.987,-1.89342,-1.13417,-0.0539204,0,0,0,-1.8973,-1.13417,-0.0539168
 17:48:57.988,-1.89228,-1.13367,-0.054005,0,0,0,-1.89613,-1.13367,-0.0540014
 17:48:57.988,-1.89064,-1.13377,-0.0542011,0,0,0,-1.89445,-1.13377,-0.0541975
 17:48:57.988,-1.88902,-1.13328,-0.0543373,0,0,0,-1.89279,-1.13328,-0.0543337
 17:48:57.989,-1.88678,-1.13336,-0.05435,0,0,0,-1.89051,-1.13336,-0.0543465
 17:48:57.989,-1.88452,-1.13346,-0.0543768,0,0,0,-1.88821,-1.13345,-0.0543733
 17:48:57.990,-1.88229,-1.13307,-0.0544227,0,0,0,-1.88595,-1.13307,-0.0544191
 17:48:57.991,-1.88063,-1.13266,-0.0545616,0,0,0,-1.88425,-1.13266,-0.0545581
 17:48:57.991,-1.87899,-1.13279,-0.054734,0,0,0,-1.88258,-1.13279,-0.0547305
 17:48:57.992,-1.87738,-1.13289,-0.0548401,0,0,0,-1.88093,-1.13289,-0.0548365
 17:48:57.992,-1.87579,-1.133,-0.0549332,0,0,0,-1.87931,-1.133,-0.0549296
 17:48:57.992,-1.87369,-1.13315,-0.0550253,0,0,0,-1.87717,-1.13315,-0.0550217
 17:48:57.993,-1.87222,-1.13269,-0.0550953,0,0,0,-1.87567,-1.13269,-0.0550918
 17:48:57.994,-1.87075,-1.13222,-0.0551657,0,0,0,-1.87416,-1.13221,-0.0551622
 17:48:57.994,-1.86928,-1.13184,-0.0552231,0,0,0,-1.87266,-1.13184,-0.0552196
 17:48:57.995,-1.8678,-1.13149,-0.0552945,0,0,0,-1.87114,-1.13149,-0.055291
 17:48:57.995,-1.86634,-1.13167,-0.0554124,0,0,0,-1.86965,-1.13167,-0.0554089
 17:48:57.995,-1.86432,-1.13126,-0.0555362,0,0,0,-1.86759,-1.13126,-0.0555328
 17:48:57.996,-1.86284,-1.13084,-0.0556477,0,0,0,-1.86608,-1.13084,-0.0556443
 17:48:57.997,-1.86139,-1.13049,-0.0557058,0,0,0,-1.8646,-1.13049,-0.0557024
 17:48:57.997,-1.86056,-1.13009,-0.0557633,0,0,0,-1.86374,-1.13009,-0.0557599
 17:48:57.998,-1.85976,-1.12966,-0.0558461,0,0,0,-1.86291,-1.12966,-0.0558427
 17:48:57.998,-1.859,-1.12929,-0.0559016,0,0,0,-1.86211,-1.12929,-0.0558983
 17:48:57.998,-1.85764,-1.12951,-0.0559524,0,0,0,-1.86073,-1.1295,-0.0559491
 17:48:57.999,-1.85618,-1.12965,-0.0560858,0,0,0,-1.85924,-1.12965,-0.0560824
 17:48:57.999,-1.85472,-1.12974,-0.0562195,0,0,0,-1.85774,-1.12974,-0.0562162
 17:48:58.000,-1.85277,-1.12985,-0.0563249,0,0,0,-1.85576,-1.12985,-0.0563216
 17:48:58.001,-1.85142,-1.12995,-0.0563507,0,0,0,-1.85438,-1.12995,-0.0563473
 17:48:58.001,-1.85017,-1.13012,-0.0564006,0,0,0,-1.85311,-1.13012,-0.0563972
 17:48:58.001,-1.84894,-1.13033,-0.0565831,0,0,0,-1.85185,-1.13033,-0.0565797
 17:48:58.002,-1.8476,-1.13108,-0.0567636,0,0,0,-1.85048,-1.13108,-0.0567602
 17:48:58.002,-1.84685,-1.13182,-0.0568517,0,0,0,-1.8497,-1.13182,-0.0568483
 17:48:58.003,-1.84556,-1.13199,-0.0569447,0,0,0,-1.84838,-1.13199,-0.0569413
 17:48:58.004,-1.84372,-1.13271,-0.0570721,0,0,0,-1.8465,-1.13271,-0.0570685
 17:48:58.004,-1.84189,-1.13287,-0.0572313,0,0,0,-1.84465,-1.13287,-0.0572278
 17:48:58.005,-1.84122,-1.13252,-0.057356,0,0,0,-1.84395,-1.13252,-0.0573525
 17:48:58.005,-1.84055,-1.13271,-0.0574227,0,0,0,-1.84326,-1.13271,-0.0574192
 17:48:58.005,-1.83934,-1.13285,-0.0575287,0,0,0,-1.84202,-1.13285,-0.0575252
 17:48:58.006,-1.83872,-1.133,-0.0576474,0,0,0,-1.84138,-1.133,-0.0576439
 17:48:58.007,-1.83752,-1.13258,-0.0577721,0,0,0,-1.84014,-1.13258,-0.0577686
 17:48:58.007,-1.83574,-1.13159,-0.0579021,0,0,0,-1.83834,-1.13158,-0.0578987
 17:48:58.008,-1.834,-1.13116,-0.0580526,0,0,0,-1.83658,-1.13116,-0.0580492
 17:48:58.008,-1.83287,-1.1313,-0.0582239,0,0,0,-1.83542,-1.1313,-0.0582204
 17:48:58.008,-1.83119,-1.1314,-0.0584078,0,0,0,-1.83371,-1.1314,-0.0584044
 17:48:58.009,-1.82953,-1.13146,-0.0584726,0,0,0,-1.83203,-1.13146,-0.0584691
 17:48:58.010,-1.82845,-1.13094,-0.0584634,0,0,0,-1.83092,-1.13094,-0.05846
 17:48:58.010,-1.82734,-1.13101,-0.0584501,0,0,0,-1.82978,-1.13101,-0.0584466
 17:48:58.011,-1.82623,-1.13108,-0.0585295,0,0,0,-1.82865,-1.13108,-0.058526
 17:48:58.011,-1.82511,-1.1306,-0.0586676,0,0,0,-1.82751,-1.1306,-0.0586642
 17:48:58.012,-1.82403,-1.1313,-0.0587552,0,0,0,-1.8264,-1.1313,-0.0587517
 17:48:58.012,-1.82302,-1.13146,-0.058873,0,0,0,-1.82537,-1.13146,-0.0588695
 17:48:58.013,-1.82206,-1.13103,-0.0589682,0,0,0,-1.82438,-1.13103,-0.0589648
 17:48:58.013,-1.82045,-1.13055,-0.0590255,0,0,0,-1.82275,-1.13055,-0.059022
 17:48:58.014,-1.81936,-1.13012,-0.0590979,0,0,0,-1.82165,-1.13011,-0.0590944
 17:48:58.014,-1.81829,-1.13087,-0.0591868,0,0,0,-1.82055,-1.13086,-0.0591834
 17:48:58.014,-1.81719,-1.13097,-0.0592949,0,0,0,-1.81942,-1.13097,-0.0592915
 17:48:58.015,-1.81617,-1.13109,-0.0593617,0,0,0,-1.81838,-1.13109,-0.0593582
 17:48:58.015,-1.81525,-1.13185,-0.0593553,0,0,0,-1.81744,-1.13185,-0.0593518
 17:48:58.016,-1.8138,-1.13263,-0.0594011,0,0,0,-1.81597,-1.13263,-0.0593976
 17:48:58.017,-1.81292,-1.13339,-0.0594877,0,0,0,-1.81506,-1.13339,-0.0594841
 17:48:58.017,-1.81139,-1.13346,-0.0595677,0,0,0,-1.81352,-1.13346,-0.0595641
 17:48:58.018,-1.8099,-1.13291,-0.0595989,0,0,0,-1.812,-1.1329,-0.0595954
 17:48:58.018,-1.80841,-1.13299,-0.059599,0,0,0,-1.8105,-1.13299,-0.0595954
 17:48:58.018,-1.80752,-1.13311,-0.0596256,0,0,0,-1.80958,-1.13311,-0.059622
 17:48:58.019,-1.80608,-1.13264,-0.059723,0,0,0,-1.80812,-1.13264,-0.0597194
 17:48:58.020,-1.80518,-1.13213,-0.059808,0,0,0,-1.8072,-1.13213,-0.0598045
 17:48:58.020,-1.80489,-1.13218,-0.0598609,0,0,0,-1.80689,-1.13218,-0.0598574
 17:48:58.021,-1.80454,-1.13167,-0.0599466,0,0,0,-1.80652,-1.13167,-0.0599431
 17:48:58.021,-1.80364,-1.13129,-0.0600322,0,0,0,-1.8056,-1.13129,-0.0600287
 17:48:58.021,-1.8028,-1.13029,-0.0600676,0,0,0,-1.80474,-1.13029,-0.0600642
 17:48:58.022,-1.80202,-1.12982,-0.0601098,0,0,0,-1.80394,-1.12982,-0.0601064
 17:48:58.023,-1.8012,-1.12933,-0.0601926,0,0,0,-1.80311,-1.12932,-0.0601892
 17:48:58.023,-1.80033,-1.12942,-0.0602461,0,0,0,-1.80222,-1.12942,-0.0602426
 17:48:58.024,-1.79946,-1.12956,-0.0602996,0,0,0,-1.80133,-1.12956,-0.0602962
 17:48:58.024,-1.79806,-1.13033,-0.0603742,0,0,0,-1.79991,-1.13033,-0.0603707
 17:48:58.025,-1.79667,-1.13103,-0.0604621,0,0,0,-1.79849,-1.13103,-0.0604586
 17:48:58.025,-1.79589,-1.13224,-0.0604921,0,0,0,-1.7977,-1.13223,-0.0604885
 17:48:58.026,-1.79456,-1.13292,-0.0605136,0,0,0,-1.79635,-1.13292,-0.06051
 17:48:58.026,-1.79328,-1.13363,-0.0605873,0,0,0,-1.79505,-1.13363,-0.0605837
 17:48:58.027,-1.792,-1.13309,-0.0607765,0,0,0,-1.79375,-1.13309,-0.0607729
 17:48:58.027,-1.79062,-1.13307,-0.0609236,0,0,0,-1.79236,-1.13306,-0.06092
 17:48:58.028,-1.78984,-1.13309,-0.0610047,0,0,0,-1.79156,-1.13309,-0.0610011
 17:48:58.028,-1.7891,-1.13202,-0.0610813,0,0,0,-1.7908,-1.13202,-0.0610777
 17:48:58.029,-1.7884,-1.13101,-0.0612624,0,0,0,-1.79009,-1.13101,-0.0612588
 17:48:58.029,-1.78714,-1.12998,-0.0614696,0,0,0,-1.78881,-1.12998,-0.0614662
 17:48:58.030,-1.78708,-1.12896,-0.0616622,0,0,0,-1.78874,-1.12896,-0.0616587
 17:48:58.030,-1.78651,-1.12969,-0.0617201,0,0,0,-1.78814,-1.12969,-0.0617166
 17:48:58.030,-1.78593,-1.1299,-0.0617437,0,0,0,-1.78755,-1.1299,-0.0617402
 17:48:58.031,-1.78534,-1.13015,-0.0617944,0,0,0,-1.78694,-1.13015,-0.0617909
 17:48:58.031,-1.7847,-1.13031,-0.0619121,0,0,0,-1.78629,-1.13031,-0.0619086
 17:48:58.032,-1.78411,-1.13041,-0.0620552,0,0,0,-1.78568,-1.13041,-0.0620517
 17:48:58.033,-1.78349,-1.1305,-0.0621593,0,0,0,-1.78505,-1.1305,-0.0621558
 17:48:58.033,-1.78228,-1.13009,-0.0622295,0,0,0,-1.78382,-1.13009,-0.062226
 17:48:58.034,-1.78103,-1.13025,-0.0623491,0,0,0,-1.78256,-1.13025,-0.0623456
 17:48:58.034,-1.77993,-1.13041,-0.0625582,0,0,0,-1.78144,-1.13041,-0.0625547
 17:48:58.034,-1.77945,-1.13059,-0.0627662,0,0,0,-1.78094,-1.13059,-0.0627626
 17:48:58.035,-1.77891,-1.13021,-0.0628746,0,0,0,-1.78039,-1.13021,-0.0628711
 17:48:58.036,-1.77834,-1.13039,-0.0629133,0,0,0,-1.77981,-1.13039,-0.0629098
 17:48:58.036,-1.77779,-1.13001,-0.0630221,0,0,0,-1.77924,-1.13001,-0.0630186
 17:48:58.037,-1.77662,-1.13019,-0.063101,0,0,0,-1.77806,-1.13019,-0.0630975
 17:48:58.037,-1.77604,-1.13034,-0.0631003,0,0,0,-1.77747,-1.13034,-0.0630968
 17:48:58.037,-1.77554,-1.13043,-0.0630978,0,0,0,-1.77694,-1.13043,-0.0630943
 17:48:58.038,-1.77505,-1.13109,-0.0630774,0,0,0,-1.77644,-1.13109,-0.0630738
 17:48:58.039,-1.77395,-1.1312,-0.0631026,0,0,0,-1.77533,-1.1312,-0.0630991
 17:48:58.039,-1.77396,-1.13132,-0.0633408,0,0,0,-1.77532,-1.13132,-0.0633373
 17:48:58.040,-1.77399,-1.13143,-0.0635784,0,0,0,-1.77534,-1.13143,-0.0635748
 17:48:58.040,-1.77351,-1.13215,-0.0636908,0,0,0,-1.77485,-1.13215,-0.0636872
 17:48:58.041,-1.77299,-1.1323,-0.0638094,0,0,0,-1.77431,-1.13229,-0.0638058
 17:48:58.041,-1.77187,-1.13246,-0.0639025,0,0,0,-1.77318,-1.13246,-0.0638989
 17:48:58.042,-1.77074,-1.13205,-0.0639743,0,0,0,-1.77204,-1.13204,-0.0639707
 17:48:58.042,-1.76965,-1.13163,-0.0640714,0,0,0,-1.77093,-1.13162,-0.0640679
 17:48:58.043,-1.76917,-1.13118,-0.0642734,0,0,0,-1.77044,-1.13118,-0.0642699
 17:48:58.043,-1.7681,-1.13126,-0.0644315,0,0,0,-1.76936,-1.13126,-0.064428
 17:48:58.044,-1.76823,-1.13139,-0.0644963,0,0,0,-1.76947,-1.13139,-0.0644928
 17:48:58.044,-1.76841,-1.13099,-0.0645377,0,0,0,-1.76964,-1.13099,-0.0645342
 17:48:58.045,-1.76799,-1.13001,-0.0645977,0,0,0,-1.76921,-1.13001,-0.0645942
 17:48:58.045,-1.76691,-1.12963,-0.0647081,0,0,0,-1.76812,-1.12963,-0.0647046
 17:48:58.046,-1.76642,-1.12928,-0.0647785,0,0,0,-1.76762,-1.12928,-0.064775
 17:48:58.046,-1.76594,-1.1289,-0.0648619,0,0,0,-1.76713,-1.12889,-0.0648584
 17:48:58.047,-1.76488,-1.12793,-0.0649366,0,0,0,-1.76605,-1.12793,-0.0649331
 17:48:58.047,-1.7644,-1.12693,-0.065024,0,0,0,-1.76556,-1.12693,-0.0650206
 17:48:58.049,-1.76396,-1.1271,-0.0651409,0,0,0,-1.76511,-1.1271,-0.0651375
 17:48:58.049,-1.76354,-1.12725,-0.0652313,0,0,0,-1.76468,-1.12725,-0.0652279
 17:48:58.049,-1.7637,-1.128,-0.0653568,0,0,0,-1.76483,-1.128,-0.0653534
 17:48:58.050,-1.76271,-1.12877,-0.0655494,0,0,0,-1.76383,-1.12877,-0.0655459
 17:48:58.050,-1.76231,-1.12951,-0.0656755,0,0,0,-1.76341,-1.12951,-0.065672
 17:48:58.050,-1.76197,-1.1308,-0.0657164,0,0,0,-1.76307,-1.1308,-0.0657128
 17:48:58.050,-1.76104,-1.13097,-0.06582,0,0,0,-1.76213,-1.13097,-0.0658164
 17:48:58.051,-1.76062,-1.13,-0.0659078,0,0,0,-1.76169,-1.13,-0.0659043
 17:48:58.052,-1.76018,-1.12959,-0.0659388,0,0,0,-1.76124,-1.12959,-0.0659352
 17:48:58.052,-1.75977,-1.12919,-0.066035,0,0,0,-1.76082,-1.12919,-0.0660315
 17:48:58.053,-1.75998,-1.12877,-0.0661963,0,0,0,-1.76102,-1.12877,-0.0661928
 17:48:58.053,-1.75962,-1.12778,-0.066375,0,0,0,-1.76065,-1.12778,-0.0663716
 17:48:58.054,-1.75864,-1.12737,-0.0665108,0,0,0,-1.75966,-1.12737,-0.0665073
 17:48:58.054,-1.75824,-1.12691,-0.0666459,0,0,0,-1.75925,-1.12691,-0.0666424
 17:48:58.055,-1.7579,-1.12644,-0.0667399,0,0,0,-1.7589,-1.12644,-0.0667364
 17:48:58.055,-1.75701,-1.1261,-0.0668598,0,0,0,-1.758,-1.1261,-0.0668563
 17:48:58.056,-1.75663,-1.12577,-0.066955,0,0,0,-1.75761,-1.12577,-0.0669516
 17:48:58.056,-1.75621,-1.12543,-0.0669984,0,0,0,-1.75718,-1.12543,-0.066995
 17:48:58.057,-1.75578,-1.12503,-0.0670815,0,0,0,-1.75674,-1.12503,-0.067078
 17:48:58.057,-1.75541,-1.1252,-0.0671193,0,0,0,-1.75636,-1.1252,-0.0671158
 17:48:58.058,-1.75564,-1.12596,-0.0671655,0,0,0,-1.75659,-1.12596,-0.0671621
 17:48:58.058,-1.7553,-1.12617,-0.0672821,0,0,0,-1.75623,-1.12617,-0.0672787
 17:48:58.059,-1.75497,-1.12701,-0.0673414,0,0,0,-1.7559,-1.12701,-0.067338
 17:48:58.059,-1.75466,-1.12732,-0.0674054,0,0,0,-1.75557,-1.12731,-0.067402
 17:48:58.060,-1.75378,-1.12758,-0.0675621,0,0,0,-1.75468,-1.12758,-0.0675586
 17:48:58.060,-1.75403,-1.12779,-0.0676926,0,0,0,-1.75493,-1.12779,-0.0676891
 17:48:58.061,-1.75372,-1.12741,-0.0677345,0,0,0,-1.75461,-1.12741,-0.067731
 17:48:58.061,-1.7534,-1.12701,-0.067737,0,0,0,-1.75428,-1.12701,-0.0677336
 17:48:58.062,-1.75312,-1.12667,-0.0677653,0,0,0,-1.75398,-1.12667,-0.0677618
 17:48:58.062,-1.75281,-1.12692,-0.067869,0,0,0,-1.75367,-1.12692,-0.0678655
 17:48:58.063,-1.75307,-1.12655,-0.0679503,0,0,0,-1.75392,-1.12655,-0.0679468
 17:48:58.063,-1.75281,-1.12621,-0.0679911,0,0,0,-1.75365,-1.12621,-0.0679877
 17:48:58.064,-1.75312,-1.12646,-0.0681197,0,0,0,-1.75396,-1.12646,-0.0681162
 17:48:58.064,-1.75338,-1.12611,-0.0683071,0,0,0,-1.7542,-1.12611,-0.0683037
 17:48:58.065,-1.75306,-1.12571,-0.0684013,0,0,0,-1.75388,-1.12571,-0.0683978
 17:48:58.065,-1.75275,-1.12526,-0.0684823,0,0,0,-1.75356,-1.12526,-0.0684788
 17:48:58.066,-1.753,-1.12484,-0.0686164,0,0,0,-1.7538,-1.12484,-0.068613
 17:48:58.066,-1.75211,-1.12568,-0.0686755,0,0,0,-1.75291,-1.12567,-0.068672
 17:48:58.067,-1.75123,-1.12595,-0.0687791,0,0,0,-1.75201,-1.12595,-0.0687757
 17:48:58.067,-1.75092,-1.1262,-0.0688434,0,0,0,-1.7517,-1.1262,-0.0688399
 17:48:58.068,-1.75064,-1.12646,-0.0688673,0,0,0,-1.75141,-1.12646,-0.0688639
 17:48:58.068,-1.75038,-1.12676,-0.0689308,0,0,0,-1.75115,-1.12676,-0.0689274
 17:48:58.069,-1.75014,-1.12644,-0.0689589,0,0,0,-1.75089,-1.12644,-0.0689554
 17:48:58.069,-1.74926,-1.12598,-0.0689743,0,0,0,-1.75001,-1.12598,-0.0689708
 17:48:58.070,-1.7484,-1.1255,-0.068976,0,0,0,-1.74914,-1.1255,-0.0689726
 17:48:58.070,-1.74815,-1.12513,-0.0690302,0,0,0,-1.74888,-1.12513,-0.0690267
 17:48:58.071,-1.74788,-1.1254,-0.0691471,0,0,0,-1.7486,-1.1254,-0.0691437
 17:48:58.071,-1.74756,-1.12565,-0.0692652,0,0,0,-1.74828,-1.12565,-0.0692618
 17:48:58.072,-1.74723,-1.12588,-0.0693836,0,0,0,-1.74794,-1.12588,-0.0693802
 17:48:58.072,-1.74693,-1.12612,-0.0695145,0,0,0,-1.74764,-1.12611,-0.0695111
 17:48:58.073,-1.74664,-1.12629,-0.069553,0,0,0,-1.74734,-1.12629,-0.0695495
 17:48:58.073,-1.74697,-1.12645,-0.0695503,0,0,0,-1.74766,-1.12644,-0.0695469
 17:48:58.074,-1.7467,-1.12604,-0.0697115,0,0,0,-1.74738,-1.12604,-0.0697081
 17:48:58.074,-1.74634,-1.12563,-0.0699144,0,0,0,-1.74701,-1.12563,-0.069911
 17:48:58.075,-1.74543,-1.12582,-0.0699672,0,0,0,-1.7461,-1.12582,-0.0699637
 17:48:58.075,-1.74519,-1.12601,-0.0700042,0,0,0,-1.74585,-1.12601,-0.0700007
 17:48:58.076,-1.74438,-1.12618,-0.0700812,0,0,0,-1.74504,-1.12618,-0.0700778
 17:48:58.076,-1.74408,-1.12579,-0.0702174,0,0,0,-1.74473,-1.12579,-0.0702139
 17:48:58.077,-1.74381,-1.12544,-0.0703393,0,0,0,-1.74445,-1.12544,-0.0703359
 17:48:58.077,-1.74357,-1.12454,-0.0705176,0,0,0,-1.74421,-1.12454,-0.0705142
 17:48:58.078,-1.74332,-1.12479,-0.0707275,0,0,0,-1.74395,-1.12479,-0.070724
 17:48:58.078,-1.74307,-1.12499,-0.0708314,0,0,0,-1.74369,-1.12498,-0.070828
 17:48:58.079,-1.74223,-1.12461,-0.0708607,0,0,0,-1.74284,-1.12461,-0.0708573
 17:48:58.079,-1.74145,-1.1243,-0.0709283,0,0,0,-1.74206,-1.1243,-0.0709249
 17:48:58.080,-1.74126,-1.124,-0.0709956,0,0,0,-1.74187,-1.124,-0.0709921
 17:48:58.080,-1.74111,-1.12424,-0.0710577,0,0,0,-1.74171,-1.12424,-0.0710543
 17:48:58.081,-1.74156,-1.12452,-0.0711194,0,0,0,-1.74215,-1.12452,-0.071116
 17:48:58.081,-1.74136,-1.12539,-0.0712051,0,0,0,-1.74195,-1.12539,-0.0712016
 17:48:58.082,-1.74054,-1.12681,-0.0713146,0,0,0,-1.74112,-1.12681,-0.0713111
 17:48:58.082,-1.73972,-1.12702,-0.0714198,0,0,0,-1.74029,-1.12702,-0.0714163
 17:48:58.083,-1.73895,-1.12785,-0.0714799,0,0,0,-1.73952,-1.12785,-0.0714765
 17:48:58.083,-1.73819,-1.12806,-0.0715444,0,0,0,-1.73876,-1.12806,-0.0715409
 17:48:58.084,-1.73797,-1.12822,-0.0716232,0,0,0,-1.73853,-1.12822,-0.0716198
 17:48:58.084,-1.73774,-1.12893,-0.0716985,0,0,0,-1.7383,-1.12893,-0.071695
 17:48:58.085,-1.73753,-1.12964,-0.0717737,0,0,0,-1.73808,-1.12964,-0.0717702
 17:48:58.085,-1.7379,-1.13032,-0.0718224,0,0,0,-1.73844,-1.13032,-0.0718189
 17:48:58.086,-1.73773,-1.13044,-0.0718745,0,0,0,-1.73826,-1.13043,-0.071871
 17:48:58.086,-1.73758,-1.13006,-0.071917,0,0,0,-1.73811,-1.13005,-0.0719135
 17:48:58.087,-1.738,-1.12973,-0.0720393,0,0,0,-1.73852,-1.12973,-0.0720358
 17:48:58.087,-1.73841,-1.12939,-0.0722669,0,0,0,-1.73893,-1.12939,-0.0722635
 17:48:58.088,-1.7382,-1.1296,-0.072412,0,0,0,-1.73872,-1.1296,-0.0724085
 17:48:58.088,-1.73796,-1.12919,-0.0724962,0,0,0,-1.73847,-1.12919,-0.0724927
 17:48:58.089,-1.73773,-1.12871,-0.0725399,0,0,0,-1.73823,-1.12871,-0.0725364
 17:48:58.089,-1.73754,-1.12882,-0.0725784,0,0,0,-1.73804,-1.12882,-0.0725749
 17:48:58.090,-1.73734,-1.12956,-0.0726003,0,0,0,-1.73783,-1.12956,-0.0725969
 17:48:58.090,-1.7377,-1.12974,-0.0726401,0,0,0,-1.73819,-1.12974,-0.0726366
 17:48:58.091,-1.7375,-1.13047,-0.0727548,0,0,0,-1.73799,-1.13047,-0.0727513
 17:48:58.091,-1.73735,-1.13061,-0.0728727,0,0,0,-1.73783,-1.13061,-0.0728692
 17:48:58.092,-1.73655,-1.13076,-0.0729396,0,0,0,-1.73702,-1.13076,-0.0729361
 17:48:58.092,-1.73632,-1.13092,-0.0730203,0,0,0,-1.73679,-1.13092,-0.0730168
 17:48:58.093,-1.73613,-1.13163,-0.0730299,0,0,0,-1.73659,-1.13163,-0.0730264
 17:48:58.093,-1.73591,-1.1317,-0.0730836,0,0,0,-1.73637,-1.1317,-0.0730801
 17:48:58.094,-1.73517,-1.13234,-0.0731982,0,0,0,-1.73563,-1.13234,-0.0731947
 17:48:58.094,-1.73501,-1.133,-0.0732734,0,0,0,-1.73546,-1.133,-0.0732699
 17:48:58.095,-1.73485,-1.1337,-0.0732962,0,0,0,-1.7353,-1.1337,-0.0732927
 17:48:58.095,-1.73471,-1.13328,-0.0733667,0,0,0,-1.73516,-1.13328,-0.0733631
 17:48:58.096,-1.73456,-1.13346,-0.07342,0,0,0,-1.735,-1.13346,-0.0734165
 17:48:58.096,-1.73436,-1.13299,-0.0734656,0,0,0,-1.7348,-1.13299,-0.073462
 17:48:58.097,-1.73419,-1.13194,-0.0735538,0,0,0,-1.73462,-1.13194,-0.0735503
 17:48:58.097,-1.73404,-1.13147,-0.0736772,0,0,0,-1.73446,-1.13147,-0.0736737
 17:48:58.098,-1.73338,-1.13102,-0.0737986,0,0,0,-1.7338,-1.13102,-0.0737951
 17:48:58.098,-1.73276,-1.13058,-0.0739193,0,0,0,-1.73317,-1.13058,-0.0739158
 17:48:58.099,-1.73266,-1.13073,-0.0740235,0,0,0,-1.73307,-1.13073,-0.07402
 17:48:58.100,-1.73251,-1.13092,-0.0741028,0,0,0,-1.73292,-1.13092,-0.0740993
 17:48:58.100,-1.73297,-1.13169,-0.0741378,0,0,0,-1.73338,-1.13169,-0.0741342
 17:48:58.100,-1.73286,-1.13183,-0.0741635,0,0,0,-1.73326,-1.13183,-0.07416
 17:48:58.101,-1.7327,-1.13198,-0.0741774,0,0,0,-1.7331,-1.13198,-0.0741739
 17:48:58.101,-1.73195,-1.13217,-0.0742447,0,0,0,-1.73234,-1.13217,-0.0742411
 17:48:58.102,-1.73177,-1.13228,-0.0743388,0,0,0,-1.73215,-1.13227,-0.0743353
 17:48:58.102,-1.7316,-1.13235,-0.0744587,0,0,0,-1.73198,-1.13235,-0.0744552
 17:48:58.103,-1.73143,-1.13195,-0.0745565,0,0,0,-1.73181,-1.13195,-0.074553
 17:48:58.103,-1.73126,-1.13271,-0.0746195,0,0,0,-1.73164,-1.13271,-0.074616
 17:48:58.104,-1.73113,-1.13282,-0.0747786,0,0,0,-1.7315,-1.13282,-0.0747751
 17:48:58.104,-1.73165,-1.13294,-0.0749094,0,0,0,-1.73202,-1.13294,-0.0749059
 17:48:58.105,-1.73158,-1.13306,-0.0749215,0,0,0,-1.73194,-1.13306,-0.074918
 17:48:58.105,-1.73146,-1.1332,-0.0748426,0,0,0,-1.73182,-1.1332,-0.0748391
 17:48:58.106,-1.73069,-1.13331,-0.0748578,0,0,0,-1.73105,-1.13331,-0.0748543
 17:48:58.106,-1.72997,-1.13341,-0.0750043,0,0,0,-1.73033,-1.13341,-0.0750008
 17:48:58.107,-1.7293,-1.13348,-0.0751236,0,0,0,-1.72965,-1.13348,-0.0751201
 17:48:58.107,-1.72921,-1.13299,-0.0751805,0,0,0,-1.72956,-1.13299,-0.0751769
 17:48:58.108,-1.72911,-1.13309,-0.0752602,0,0,0,-1.72946,-1.13309,-0.0752567
 17:48:58.108,-1.72896,-1.13262,-0.0753589,0,0,0,-1.7293,-1.13262,-0.0753553
 17:48:58.109,-1.72943,-1.1328,-0.0754127,0,0,0,-1.72977,-1.1328,-0.0754091
 17:48:58.109,-1.72996,-1.13239,-0.0754951,0,0,0,-1.73029,-1.13239,-0.0754915
 17:48:58.110,-1.72989,-1.13196,-0.0756041,0,0,0,-1.73023,-1.13196,-0.0756006
 17:48:58.110,-1.7298,-1.1315,-0.075687,0,0,0,-1.73013,-1.1315,-0.0756835
 17:48:58.111,-1.72911,-1.131,-0.0757704,0,0,0,-1.72943,-1.131,-0.0757669
 17:48:58.111,-1.72902,-1.1311,-0.0758228,0,0,0,-1.72934,-1.1311,-0.0758193
 17:48:58.112,-1.72953,-1.13127,-0.0759012,0,0,0,-1.72985,-1.13127,-0.0758977
 17:48:58.112,-1.72942,-1.13149,-0.0759151,0,0,0,-1.72974,-1.13149,-0.0759116
 17:48:58.113,-1.72929,-1.13235,-0.0759522,0,0,0,-1.7296,-1.13235,-0.0759487
 17:48:58.113,-1.73035,-1.13315,-0.0760673,0,0,0,-1.73066,-1.13315,-0.0760637
 17:48:58.114,-1.73026,-1.13274,-0.0762435,0,0,0,-1.73057,-1.13274,-0.07624
 17:48:58.114,-1.73013,-1.13231,-0.0763414,0,0,0,-1.73043,-1.13231,-0.0763379
 17:48:58.115,-1.73005,-1.13249,-0.0763542,0,0,0,-1.73035,-1.13249,-0.0763507
 17:48:58.115,-1.72998,-1.13257,-0.0764061,0,0,0,-1.73028,-1.13257,-0.0764026
 17:48:58.116,-1.72993,-1.13322,-0.0765062,0,0,0,-1.73023,-1.13322,-0.0765027
 17:48:58.116,-1.72986,-1.13274,-0.0765891,0,0,0,-1.73015,-1.13274,-0.0765856
 17:48:58.117,-1.7298,-1.13285,-0.0767205,0,0,0,-1.73009,-1.13285,-0.076717
 17:48:58.117,-1.72973,-1.13299,-0.0769716,0,0,0,-1.73001,-1.13299,-0.0769681
 17:48:58.118,-1.72969,-1.1326,-0.0771465,0,0,0,-1.72997,-1.1326,-0.077143
 17:48:58.118,-1.72905,-1.13277,-0.0771193,0,0,0,-1.72933,-1.13277,-0.0771157
 17:48:58.119,-1.729,-1.13295,-0.077066,0,0,0,-1.72927,-1.13295,-0.0770624
 17:48:58.119,-1.72828,-1.13306,-0.077094,0,0,0,-1.72856,-1.13306,-0.0770904
 17:48:58.120,-1.72698,-1.13254,-0.0771529,0,0,0,-1.72725,-1.13254,-0.0771494
 17:48:58.120,-1.72638,-1.13147,-0.077292,0,0,0,-1.72665,-1.13147,-0.0772885
 17:48:58.121,-1.72634,-1.12983,-0.0775942,0,0,0,-1.7266,-1.12983,-0.0775907
 17:48:58.121,-1.7257,-1.12945,-0.0778357,0,0,0,-1.72596,-1.12945,-0.0778322
 17:48:58.122,-1.72568,-1.1291,-0.0779968,0,0,0,-1.72594,-1.1291,-0.0779933
 17:48:58.122,-1.72566,-1.12817,-0.0781356,0,0,0,-1.72592,-1.12817,-0.0781321
 17:48:58.123,-1.72562,-1.1273,-0.0781822,0,0,0,-1.72587,-1.12729,-0.0781786
 17:48:58.123,-1.72563,-1.12702,-0.078223,0,0,0,-1.72588,-1.12702,-0.0782195
 17:48:58.124,-1.72507,-1.12667,-0.0782635,0,0,0,-1.72532,-1.12667,-0.07826
 17:48:58.124,-1.72506,-1.12629,-0.0782918,0,0,0,-1.7253,-1.12629,-0.0782883
 17:48:58.125,-1.72443,-1.12706,-0.0783918,0,0,0,-1.72467,-1.12706,-0.0783883
 17:48:58.125,-1.72441,-1.12725,-0.0785086,0,0,0,-1.72465,-1.12725,-0.0785051
 17:48:58.126,-1.72444,-1.12803,-0.0785277,0,0,0,-1.72468,-1.12803,-0.0785242
 17:48:58.126,-1.72441,-1.12881,-0.0785357,0,0,0,-1.72465,-1.12881,-0.0785322
 17:48:58.127,-1.72436,-1.12959,-0.0786635,0,0,0,-1.72459,-1.12959,-0.07866
 17:48:58.127,-1.72489,-1.1298,-0.078716,0,0,0,-1.72512,-1.1298,-0.0787125
 17:48:58.128,-1.72486,-1.13058,-0.0787374,0,0,0,-1.72509,-1.13058,-0.0787339
 17:48:58.128,-1.72423,-1.1313,-0.0788126,0,0,0,-1.72446,-1.1313,-0.0788091
 17:48:58.129,-1.72362,-1.13139,-0.0789048,0,0,0,-1.72384,-1.13139,-0.0789012
 17:48:58.129,-1.72355,-1.13091,-0.0790018,0,0,0,-1.72377,-1.13091,-0.0789983
 17:48:58.130,-1.72347,-1.13109,-0.0790815,0,0,0,-1.7237,-1.13108,-0.079078
 17:48:58.130,-1.72343,-1.13185,-0.0791701,0,0,0,-1.72365,-1.13185,-0.0791666
 17:48:58.131,-1.72278,-1.13199,-0.0792766,0,0,0,-1.723,-1.13199,-0.0792731
 17:48:58.132,-1.72214,-1.13215,-0.0793574,0,0,0,-1.72235,-1.13215,-0.0793538
 17:48:58.132,-1.72208,-1.13231,-0.0794774,0,0,0,-1.7223,-1.13231,-0.0794739
 17:48:58.132,-1.72203,-1.13301,-0.0795667,0,0,0,-1.72224,-1.13301,-0.0795632
 17:48:58.133,-1.72203,-1.13197,-0.0796274,0,0,0,-1.72224,-1.13197,-0.0796239
 17:48:58.133,-1.72204,-1.13094,-0.0797535,0,0,0,-1.72225,-1.13094,-0.07975
 17:48:58.134,-1.72142,-1.12986,-0.07996,0,0,0,-1.72163,-1.12986,-0.0799565
 17:48:58.134,-1.72081,-1.12821,-0.0801963,0,0,0,-1.72102,-1.12821,-0.0801928
 17:48:58.135,-1.72078,-1.12718,-0.0803884,0,0,0,-1.72098,-1.12718,-0.0803849
 17:48:58.135,-1.7202,-1.12677,-0.080457,0,0,0,-1.7204,-1.12677,-0.0804535
 17:48:58.136,-1.71964,-1.12641,-0.0804856,0,0,0,-1.71984,-1.12641,-0.0804821
 17:48:58.136,-1.71966,-1.12717,-0.0805457,0,0,0,-1.71986,-1.12717,-0.0805422
 17:48:58.137,-1.71963,-1.12792,-0.0806069,0,0,0,-1.71983,-1.12792,-0.0806034
 17:48:58.137,-1.7196,-1.12816,-0.0806332,0,0,0,-1.71979,-1.12816,-0.0806297
 17:48:58.138,-1.71898,-1.12899,-0.0806297,0,0,0,-1.71917,-1.12899,-0.0806262
 17:48:58.138,-1.71897,-1.1292,-0.0806957,0,0,0,-1.71915,-1.1292,-0.0806922
 17:48:58.139,-1.71895,-1.12881,-0.0808184,0,0,0,-1.71913,-1.12881,-0.0808149
 17:48:58.139,-1.71893,-1.12843,-0.0809016,0,0,0,-1.71911,-1.12843,-0.0808981
 17:48:58.140,-1.71889,-1.12863,-0.0809548,0,0,0,-1.71907,-1.12863,-0.0809512
 17:48:58.140,-1.7194,-1.12878,-0.0810351,0,0,0,-1.71958,-1.12878,-0.0810316
 17:48:58.141,-1.72,-1.12895,-0.081113,0,0,0,-1.72018,-1.12895,-0.0811095
 17:48:58.142,-1.72063,-1.12857,-0.0812341,0,0,0,-1.72081,-1.12857,-0.0812306
 17:48:58.142,-1.72063,-1.12932,-0.0812951,0,0,0,-1.7208,-1.12932,-0.0812915
 17:48:58.142,-1.72057,-1.12999,-0.0813575,0,0,0,-1.72074,-1.12999,-0.081354
 17:48:58.143,-1.72048,-1.13006,-0.0815303,0,0,0,-1.72065,-1.13006,-0.0815268
 17:48:58.143,-1.72047,-1.13019,-0.0816883,0,0,0,-1.72064,-1.13019,-0.0816848
 17:48:58.144,-1.72046,-1.13091,-0.0817365,0,0,0,-1.72063,-1.13091,-0.081733
 17:48:58.144,-1.72101,-1.1316,-0.0817586,0,0,0,-1.72117,-1.1316,-0.0817551
 17:48:58.145,-1.72162,-1.13228,-0.0818061,0,0,0,-1.72178,-1.13228,-0.0818026
 17:48:58.145,-1.72167,-1.13297,-0.08188,0,0,0,-1.72183,-1.13297,-0.0818765
 17:48:58.146,-1.72227,-1.13313,-0.0819186,0,0,0,-1.72243,-1.13312,-0.0819151
 17:48:58.146,-1.72226,-1.13322,-0.0820111,0,0,0,-1.72242,-1.13322,-0.0820076
 17:48:58.147,-1.72274,-1.1327,-0.082202,0,0,0,-1.7229,-1.1327,-0.0821984
 17:48:58.148,-1.72259,-1.13219,-0.082275,0,0,0,-1.72275,-1.13219,-0.0822715
 17:48:58.148,-1.72196,-1.13172,-0.0822533,0,0,0,-1.72211,-1.13172,-0.0822497
 17:48:58.148,-1.72082,-1.13185,-0.0822653,0,0,0,-1.72098,-1.13185,-0.0822618
 17:48:58.149,-1.72085,-1.13144,-0.0823212,0,0,0,-1.721,-1.13144,-0.0823177
 17:48:58.149,-1.72084,-1.13159,-0.0824133,0,0,0,-1.72099,-1.13159,-0.0824097
 17:48:58.150,-1.72084,-1.13167,-0.0825583,0,0,0,-1.72099,-1.13167,-0.0825548
 17:48:58.150,-1.72088,-1.13114,-0.0827064,0,0,0,-1.72103,-1.13114,-0.0827029
 17:48:58.151,-1.72087,-1.13068,-0.0827625,0,0,0,-1.72102,-1.13068,-0.082759
 17:48:58.151,-1.72084,-1.13033,-0.0828463,0,0,0,-1.72098,-1.13033,-0.0828428
 17:48:58.151,-1.7208,-1.12999,-0.08297,0,0,0,-1.72094,-1.12999,-0.0829665
 17:48:58.151,-1.72025,-1.12961,-0.0830918,0,0,0,-1.72039,-1.12961,-0.0830883
 17:48:58.152,-1.71974,-1.13036,-0.0831514,0,0,0,-1.71988,-1.13036,-0.0831479
 17:48:58.152,-1.71917,-1.13116,-0.0832001,0,0,0,-1.71931,-1.13116,-0.0831965
 17:48:58.153,-1.71916,-1.1314,-0.0832405,0,0,0,-1.7193,-1.1314,-0.083237
 17:48:58.153,-1.71854,-1.13214,-0.083238,0,0,0,-1.71867,-1.13214,-0.0832345
 17:48:58.154,-1.71905,-1.13279,-0.0832885,0,0,0,-1.71919,-1.13279,-0.083285
 17:48:58.154,-1.71905,-1.13291,-0.0833159,0,0,0,-1.71918,-1.13291,-0.0833124
 17:48:58.155,-1.71966,-1.13307,-0.0833023,0,0,0,-1.71979,-1.13306,-0.0832988
 17:48:58.155,-1.7197,-1.13262,-0.0834115,0,0,0,-1.71983,-1.13262,-0.083408
 17:48:58.156,-1.72032,-1.13159,-0.0835901,0,0,0,-1.72045,-1.13159,-0.0835866
 17:48:58.157,-1.72093,-1.13058,-0.0837423,0,0,0,-1.72106,-1.13058,-0.0837388
 17:48:58.157,-1.72099,-1.13017,-0.0838768,0,0,0,-1.72111,-1.13017,-0.0838732
 17:48:58.157,-1.72102,-1.13029,-0.0839411,0,0,0,-1.72115,-1.13029,-0.0839376
 17:48:58.158,-1.721,-1.13046,-0.0840331,0,0,0,-1.72113,-1.13046,-0.0840296
 17:48:58.158,-1.72095,-1.1307,-0.0841133,0,0,0,-1.72107,-1.1307,-0.0841098
 17:48:58.159,-1.72148,-1.1315,-0.0841762,0,0,0,-1.7216,-1.1315,-0.0841726
 17:48:58.160,-1.72149,-1.13226,-0.0843172,0,0,0,-1.72161,-1.13226,-0.0843136
 17:48:58.160,-1.72153,-1.13246,-0.0844615,0,0,0,-1.72165,-1.13246,-0.084458
 17:48:58.160,-1.72154,-1.13323,-0.0844042,0,0,0,-1.72166,-1.13323,-0.0844007
 17:48:58.161,-1.72214,-1.13401,-0.0843466,0,0,0,-1.72226,-1.13401,-0.0843431
 17:48:58.161,-1.72209,-1.13525,-0.0843663,0,0,0,-1.7222,-1.13525,-0.0843627
 17:48:58.162,-1.72205,-1.13645,-0.0844124,0,0,0,-1.72216,-1.13645,-0.0844088
 17:48:58.163,-1.72139,-1.13704,-0.0844641,0,0,0,-1.7215,-1.13704,-0.0844606
 17:48:58.163,-1.72075,-1.13704,-0.084612,0,0,0,-1.72086,-1.13704,-0.0846084
 17:48:58.164,-1.72075,-1.13706,-0.0847588,0,0,0,-1.72086,-1.13706,-0.0847553
 17:48:58.164,-1.72078,-1.13594,-0.0848992,0,0,0,-1.72089,-1.13594,-0.0848957
 17:48:58.164,-1.72139,-1.1348,-0.0849467,0,0,0,-1.7215,-1.1348,-0.0849432
 17:48:58.165,-1.722,-1.13372,-0.0850204,0,0,0,-1.72211,-1.13372,-0.0850169
 17:48:58.165,-1.72196,-1.1321,-0.0852053,0,0,0,-1.72207,-1.1321,-0.0852018
 17:48:58.166,-1.72187,-1.13103,-0.0853867,0,0,0,-1.72197,-1.13103,-0.0853832
 17:48:58.166,-1.72182,-1.12881,-0.0856271,0,0,0,-1.72192,-1.12881,-0.0856236
 17:48:58.167,-1.72121,-1.12779,-0.0858323,0,0,0,-1.72132,-1.12779,-0.0858287
 17:48:58.167,-1.72064,-1.12736,-0.0859798,0,0,0,-1.72074,-1.12736,-0.0859763
 17:48:58.168,-1.72066,-1.12693,-0.0861004,0,0,0,-1.72076,-1.12693,-0.0860969
 17:48:58.168,-1.72073,-1.12715,-0.0862027,0,0,0,-1.72083,-1.12715,-0.0861992
 17:48:58.169,-1.7208,-1.12737,-0.086226,0,0,0,-1.7209,-1.12737,-0.0862225
 17:48:58.169,-1.72084,-1.1287,-0.0861624,0,0,0,-1.72094,-1.1287,-0.0861589
 17:48:58.170,-1.72081,-1.13001,-0.0862066,0,0,0,-1.72091,-1.13001,-0.0862031
 17:48:58.170,-1.72021,-1.13072,-0.086308,0,0,0,-1.72031,-1.13072,-0.0863044
 17:48:58.171,-1.72017,-1.13139,-0.086331,0,0,0,-1.72027,-1.13139,-0.0863275
 17:48:58.171,-1.71958,-1.13211,-0.0863537,0,0,0,-1.71968,-1.13211,-0.0863502
 17:48:58.172,-1.71959,-1.13222,-0.0864324,0,0,0,-1.71969,-1.13222,-0.0864289
 17:48:58.173,-1.72025,-1.13173,-0.0865535,0,0,0,-1.72034,-1.13173,-0.08655
 17:48:58.173,-1.72026,-1.1313,-0.0866496,0,0,0,-1.72035,-1.1313,-0.0866461
 17:48:58.173,-1.72084,-1.13207,-0.0866322,0,0,0,-1.72093,-1.13207,-0.0866287
 17:48:58.174,-1.72082,-1.13283,-0.0867346,0,0,0,-1.72091,-1.13283,-0.0867311
 17:48:58.174,-1.72137,-1.13245,-0.0868983,0,0,0,-1.72146,-1.13245,-0.0868948
 17:48:58.175,-1.72074,-1.13262,-0.0869786,0,0,0,-1.72083,-1.13262,-0.0869751
 17:48:58.176,-1.72071,-1.13276,-0.0870853,0,0,0,-1.72079,-1.13276,-0.0870817
 17:48:58.176,-1.7201,-1.13292,-0.0871789,0,0,0,-1.72019,-1.13292,-0.0871753
 17:48:58.176,-1.72011,-1.13305,-0.0872842,0,0,0,-1.7202,-1.13305,-0.0872807
 17:48:58.177,-1.72014,-1.13371,-0.087372,0,0,0,-1.72023,-1.13371,-0.0873685
 17:48:58.177,-1.72017,-1.13385,-0.0874908,0,0,0,-1.72026,-1.13385,-0.0874873
 17:48:58.178,-1.7208,-1.13344,-0.0875997,0,0,0,-1.72089,-1.13344,-0.0875962
 17:48:58.179,-1.72142,-1.133,-0.0876027,0,0,0,-1.7215,-1.133,-0.0875992
 17:48:58.179,-1.72139,-1.13253,-0.0876202,0,0,0,-1.72147,-1.13253,-0.0876167
 17:48:58.180,-1.72081,-1.13205,-0.0876503,0,0,0,-1.72089,-1.13205,-0.0876468
 17:48:58.180,-1.72021,-1.13153,-0.0876806,0,0,0,-1.72029,-1.13153,-0.0876771
 17:48:58.180,-1.7202,-1.13048,-0.0878339,0,0,0,-1.72028,-1.13048,-0.0878304
 17:48:58.181,-1.71958,-1.12947,-0.0880276,0,0,0,-1.71966,-1.12947,-0.0880241
 17:48:58.181,-1.71958,-1.12847,-0.0882463,0,0,0,-1.71966,-1.12847,-0.0882428
 17:48:58.182,-1.71904,-1.12749,-0.088477,0,0,0,-1.71912,-1.12749,-0.0884734
 17:48:58.183,-1.71908,-1.12654,-0.0886412,0,0,0,-1.71916,-1.12654,-0.0886377
 17:48:58.183,-1.7191,-1.12617,-0.0887361,0,0,0,-1.71917,-1.12617,-0.0887325
 17:48:58.183,-1.71911,-1.12581,-0.0887647,0,0,0,-1.71918,-1.12581,-0.0887612
 17:48:58.184,-1.71851,-1.12545,-0.0888867,0,0,0,-1.71858,-1.12545,-0.0888832
 17:48:58.184,-1.71844,-1.12509,-0.0890623,0,0,0,-1.71852,-1.12509,-0.0890588
 17:48:58.185,-1.71835,-1.12467,-0.0892119,0,0,0,-1.71842,-1.12467,-0.0892084
 17:48:58.186,-1.71833,-1.12542,-0.089299,0,0,0,-1.71841,-1.12542,-0.0892955
 17:48:58.186,-1.71838,-1.12617,-0.0893186,0,0,0,-1.71845,-1.12617,-0.0893151
 17:48:58.186,-1.71904,-1.12639,-0.0894344,0,0,0,-1.7191,-1.12639,-0.0894309
 17:48:58.187,-1.71908,-1.12665,-0.0895904,0,0,0,-1.71915,-1.12665,-0.0895869
 17:48:58.187,-1.71917,-1.12749,-0.0896623,0,0,0,-1.71924,-1.12749,-0.0896588
 17:48:58.188,-1.71922,-1.12825,-0.0896556,0,0,0,-1.71929,-1.12825,-0.0896521
 17:48:58.189,-1.71978,-1.12895,-0.0896776,0,0,0,-1.71985,-1.12895,-0.089674
 17:48:58.189,-1.71973,-1.12907,-0.089704,0,0,0,-1.71979,-1.12907,-0.0897005
 17:48:58.190,-1.72028,-1.12923,-0.0897169,0,0,0,-1.72034,-1.12923,-0.0897133
 17:48:58.190,-1.71969,-1.12941,-0.089822,0,0,0,-1.71976,-1.12941,-0.0898185
 17:48:58.190,-1.71973,-1.1302,-0.0898957,0,0,0,-1.7198,-1.1302,-0.0898922
 17:48:58.191,-1.71918,-1.13038,-0.0899871,0,0,0,-1.71925,-1.13038,-0.0899835
 17:48:58.192,-1.71923,-1.13054,-0.0900516,0,0,0,-1.71929,-1.13054,-0.0900481
 17:48:58.192,-1.71873,-1.13015,-0.090146,0,0,0,-1.71879,-1.13015,-0.0901424
 17:48:58.193,-1.7188,-1.13035,-0.09021,0,0,0,-1.71886,-1.13035,-0.0902065
 17:48:58.193,-1.71828,-1.13166,-0.0902531,0,0,0,-1.71834,-1.13166,-0.0902496
 17:48:58.193,-1.71833,-1.13236,-0.090301,0,0,0,-1.71839,-1.13236,-0.0902975
 17:48:58.194,-1.7178,-1.13302,-0.0903358,0,0,0,-1.71786,-1.13302,-0.0903322
 17:48:58.195,-1.71785,-1.13315,-0.0904014,0,0,0,-1.71791,-1.13315,-0.0903978
 17:48:58.195,-1.71729,-1.13388,-0.0904109,0,0,0,-1.71735,-1.13388,-0.0904073
 17:48:58.196,-1.71734,-1.13343,-0.0904941,0,0,0,-1.7174,-1.13343,-0.0904906
 17:48:58.196,-1.7174,-1.13295,-0.0905638,0,0,0,-1.71746,-1.13295,-0.0905603
 17:48:58.196,-1.71799,-1.13191,-0.0906515,0,0,0,-1.71805,-1.13191,-0.0906479
 17:48:58.197,-1.71805,-1.13146,-0.0907207,0,0,0,-1.7181,-1.13146,-0.0907172
 17:48:58.197,-1.71812,-1.1304,-0.0907931,0,0,0,-1.71818,-1.1304,-0.0907896
 17:48:58.198,-1.71814,-1.12991,-0.0907961,0,0,0,-1.7182,-1.12991,-0.0907925
 17:48:58.199,-1.71866,-1.12948,-0.0908279,0,0,0,-1.71871,-1.12948,-0.0908244
 17:48:58.199,-1.71799,-1.12903,-0.0909128,0,0,0,-1.71805,-1.12903,-0.0909093
 17:48:58.200,-1.71801,-1.12921,-0.0910178,0,0,0,-1.71806,-1.12921,-0.0910143
 17:48:58.200,-1.71746,-1.1294,-0.0910171,0,0,0,-1.71752,-1.1294,-0.0910136
 17:48:58.200,-1.71805,-1.12956,-0.0910563,0,0,0,-1.71811,-1.12956,-0.0910528
 17:48:58.201,-1.71805,-1.12974,-0.0911353,0,0,0,-1.7181,-1.12974,-0.0911318
 17:48:58.202,-1.7181,-1.12932,-0.0912702,0,0,0,-1.71815,-1.12932,-0.0912667
 17:48:58.202,-1.71759,-1.12944,-0.0914133,0,0,0,-1.71764,-1.12944,-0.0914098
 17:48:58.203,-1.71766,-1.12959,-0.091504,0,0,0,-1.71771,-1.12959,-0.0915004
 17:48:58.203,-1.71714,-1.12976,-0.0915684,0,0,0,-1.71719,-1.12976,-0.0915649
 17:48:58.203,-1.71721,-1.12999,-0.0916334,0,0,0,-1.71726,-1.12999,-0.0916298
 17:48:58.204,-1.71665,-1.1308,-0.0916691,0,0,0,-1.7167,-1.1308,-0.0916655
 17:48:58.205,-1.71669,-1.13156,-0.0916913,0,0,0,-1.71674,-1.13156,-0.0916878
 17:48:58.205,-1.71726,-1.13221,-0.0917144,0,0,0,-1.71731,-1.13221,-0.0917109
 17:48:58.206,-1.71727,-1.13289,-0.091711,0,0,0,-1.71731,-1.13289,-0.0917075
 17:48:58.206,-1.7173,-1.13302,-0.0917905,0,0,0,-1.71735,-1.13302,-0.091787
 17:48:58.206,-1.71678,-1.1337,-0.0918919,0,0,0,-1.71683,-1.1337,-0.0918884
 17:48:58.207,-1.71629,-1.13381,-0.0919178,0,0,0,-1.71633,-1.13381,-0.0919143
 17:48:58.208,-1.71628,-1.13386,-0.092025,0,0,0,-1.71633,-1.13386,-0.0920215
 17:48:58.208,-1.71625,-1.1339,-0.0921722,0,0,0,-1.7163,-1.1339,-0.0921687
 17:48:58.209,-1.71629,-1.13338,-0.0922557,0,0,0,-1.71634,-1.13338,-0.0922522
 17:48:58.209,-1.71639,-1.13285,-0.0923245,0,0,0,-1.71643,-1.13285,-0.0923209
 17:48:58.210,-1.71645,-1.1323,-0.0924201,0,0,0,-1.7165,-1.1323,-0.0924166
 17:48:58.210,-1.71654,-1.1324,-0.092485,0,0,0,-1.71659,-1.1324,-0.0924814
 17:48:58.211,-1.71657,-1.13194,-0.0925422,0,0,0,-1.71661,-1.13194,-0.0925387
 17:48:58.211,-1.71604,-1.13153,-0.0926386,0,0,0,-1.71608,-1.13153,-0.092635
 17:48:58.212,-1.71551,-1.13107,-0.0927614,0,0,0,-1.71555,-1.13107,-0.0927578
 17:48:58.212,-1.71556,-1.13056,-0.0929235,0,0,0,-1.7156,-1.13056,-0.09292
 17:48:58.213,-1.71558,-1.1301,-0.0929805,0,0,0,-1.71562,-1.1301,-0.092977
 17:48:58.213,-1.71556,-1.1303,-0.0930741,0,0,0,-1.7156,-1.1303,-0.0930706
 17:48:58.213,-1.71558,-1.1299,-0.0932766,0,0,0,-1.71562,-1.1299,-0.093273
 17:48:58.214,-1.71566,-1.1295,-0.0933983,0,0,0,-1.7157,-1.1295,-0.0933948
 17:48:58.215,-1.71627,-1.12849,-0.0935515,0,0,0,-1.71631,-1.12849,-0.093548
 17:48:58.215,-1.71628,-1.12805,-0.093674,0,0,0,-1.71632,-1.12805,-0.0936705
 17:48:58.216,-1.71627,-1.12758,-0.0937437,0,0,0,-1.71631,-1.12758,-0.0937402
 17:48:58.216,-1.71628,-1.12714,-0.0937998,0,0,0,-1.71632,-1.12714,-0.0937963
 17:48:58.216,-1.71635,-1.12675,-0.0938412,0,0,0,-1.71639,-1.12675,-0.0938377
 17:48:58.217,-1.71581,-1.12693,-0.0938927,0,0,0,-1.71584,-1.12693,-0.0938891
 17:48:58.218,-1.71583,-1.12711,-0.0939444,0,0,0,-1.71586,-1.12711,-0.0939408
 17:48:58.218,-1.71591,-1.12733,-0.0940479,0,0,0,-1.71595,-1.12733,-0.0940444
 17:48:58.219,-1.71603,-1.12751,-0.0941768,0,0,0,-1.71607,-1.12751,-0.0941733
 17:48:58.219,-1.71612,-1.12764,-0.0942138,0,0,0,-1.71615,-1.12764,-0.0942103
 17:48:58.220,-1.7162,-1.12834,-0.0943528,0,0,0,-1.71624,-1.12834,-0.0943492
 17:48:58.220,-1.71688,-1.12851,-0.0945748,0,0,0,-1.71692,-1.12851,-0.0945713
 17:48:58.221,-1.71697,-1.12934,-0.0946217,0,0,0,-1.717,-1.12934,-0.0946182
 17:48:58.221,-1.71701,-1.13014,-0.0947093,0,0,0,-1.71705,-1.13014,-0.0947057
 17:48:58.222,-1.71706,-1.13028,-0.0948803,0,0,0,-1.71709,-1.13028,-0.0948767
 17:48:58.222,-1.71712,-1.12984,-0.0950153,0,0,0,-1.71715,-1.12984,-0.0950117
 17:48:58.223,-1.71714,-1.12999,-0.0951206,0,0,0,-1.71717,-1.12999,-0.0951171
 17:48:58.223,-1.71717,-1.13018,-0.0952257,0,0,0,-1.71721,-1.13018,-0.0952222
 17:48:58.224,-1.71721,-1.13037,-0.0952779,0,0,0,-1.71724,-1.13037,-0.0952744
 17:48:58.224,-1.71724,-1.13058,-0.0953171,0,0,0,-1.71728,-1.13058,-0.0953136
 17:48:58.225,-1.71671,-1.13078,-0.0953563,0,0,0,-1.71674,-1.13078,-0.0953528
 17:48:58.225,-1.71621,-1.13094,-0.0953547,0,0,0,-1.71625,-1.13094,-0.0953512
 17:48:58.226,-1.71577,-1.13105,-0.0953919,0,0,0,-1.7158,-1.13105,-0.0953884
 17:48:58.226,-1.71591,-1.13114,-0.0954685,0,0,0,-1.71594,-1.13114,-0.0954649
 17:48:58.227,-1.71537,-1.13065,-0.0956308,0,0,0,-1.7154,-1.13065,-0.0956273
 17:48:58.227,-1.71539,-1.12963,-0.0958242,0,0,0,-1.71542,-1.12963,-0.0958207
 17:48:58.228,-1.71545,-1.12927,-0.0959334,0,0,0,-1.71548,-1.12927,-0.0959298
 17:48:58.228,-1.71555,-1.12895,-0.0960015,0,0,0,-1.71558,-1.12895,-0.0959979
 17:48:58.229,-1.71557,-1.12854,-0.0960846,0,0,0,-1.7156,-1.12854,-0.0960811
 17:48:58.229,-1.7156,-1.1275,-0.0962901,0,0,0,-1.71563,-1.1275,-0.0962866
 17:48:58.229,-1.71507,-1.12708,-0.0964246,0,0,0,-1.7151,-1.12708,-0.0964211
 17:48:58.230,-1.71513,-1.1267,-0.096546,0,0,0,-1.71516,-1.1267,-0.0965425
 17:48:58.231,-1.71459,-1.12632,-0.0967209,0,0,0,-1.71462,-1.12632,-0.0967174
 17:48:58.231,-1.71465,-1.12651,-0.0968644,0,0,0,-1.71468,-1.12651,-0.0968609
 17:48:58.232,-1.71411,-1.12609,-0.0969726,0,0,0,-1.71414,-1.12609,-0.0969691
 17:48:58.232,-1.71418,-1.12572,-0.0970407,0,0,0,-1.71421,-1.12572,-0.0970372
 17:48:58.233,-1.71312,-1.12596,-0.0971311,0,0,0,-1.71314,-1.12596,-0.0971276
 17:48:58.233,-1.7138,-1.12621,-0.0972344,0,0,0,-1.71383,-1.12621,-0.0972309
 17:48:58.234,-1.71334,-1.12642,-0.0972975,0,0,0,-1.71336,-1.12642,-0.097294
 17:48:58.234,-1.71404,-1.12669,-0.0973869,0,0,0,-1.71407,-1.12669,-0.0973834
 17:48:58.235,-1.71412,-1.12698,-0.0974513,0,0,0,-1.71415,-1.12698,-0.0974477
 17:48:58.235,-1.71472,-1.1267,-0.0975075,0,0,0,-1.71475,-1.1267,-0.0975039
 17:48:58.236,-1.71423,-1.12698,-0.097545,0,0,0,-1.71426,-1.12698,-0.0975415
 17:48:58.236,-1.71435,-1.12773,-0.0976175,0,0,0,-1.71438,-1.12773,-0.097614
 17:48:58.237,-1.71444,-1.12842,-0.0977833,0,0,0,-1.71447,-1.12842,-0.0977798
 17:48:58.237,-1.7151,-1.12915,-0.0979099,0,0,0,-1.71512,-1.12915,-0.0979063
 17:48:58.238,-1.71518,-1.1299,-0.097904,0,0,0,-1.7152,-1.1299,-0.0979004
 17:48:58.238,-1.71529,-1.13126,-0.0978675,0,0,0,-1.71531,-1.13126,-0.0978639
 17:48:58.239,-1.71536,-1.13255,-0.0978852,0,0,0,-1.71539,-1.13255,-0.0978816
 17:48:58.239,-1.71543,-1.13378,-0.0979294,0,0,0,-1.71545,-1.13378,-0.0979258
 17:48:58.240,-1.71547,-1.13445,-0.0980052,0,0,0,-1.71549,-1.13445,-0.0980017
 17:48:58.240,-1.71546,-1.13514,-0.0980562,0,0,0,-1.71548,-1.13514,-0.0980527
 17:48:58.241,-1.71546,-1.13517,-0.0981373,0,0,0,-1.71549,-1.13517,-0.0981337
 17:48:58.241,-1.71553,-1.13459,-0.0983264,0,0,0,-1.71555,-1.13459,-0.0983229
 17:48:58.242,-1.71621,-1.13352,-0.098518,0,0,0,-1.71623,-1.13352,-0.0985145
 17:48:58.242,-1.71691,-1.13247,-0.09863,0,0,0,-1.71693,-1.13247,-0.0986264
 17:48:58.243,-1.71754,-1.13139,-0.0987822,0,0,0,-1.71756,-1.13139,-0.0987787
 17:48:58.243,-1.71754,-1.12975,-0.0989658,0,0,0,-1.71757,-1.12975,-0.0989623
 17:48:58.244,-1.71696,-1.12871,-0.0991326,0,0,0,-1.71698,-1.12871,-0.0991291
 17:48:58.244,-1.71696,-1.12826,-0.0992287,0,0,0,-1.71698,-1.12826,-0.0992252
 17:48:58.245,-1.71693,-1.12721,-0.0993158,0,0,0,-1.71695,-1.12721,-0.0993123
 17:48:58.245,-1.71691,-1.12676,-0.0994118,0,0,0,-1.71693,-1.12676,-0.0994083
 17:48:58.245,-1.71694,-1.12701,-0.0995957,0,0,0,-1.71696,-1.12701,-0.0995922
 17:48:58.246,-1.71704,-1.12731,-0.0997513,0,0,0,-1.71706,-1.12731,-0.0997478
 17:48:58.247,-1.71712,-1.1275,-0.0998018,0,0,0,-1.71714,-1.1275,-0.0997983
 17:48:58.247,-1.71715,-1.12816,-0.0998884,0,0,0,-1.71717,-1.12816,-0.0998848
 17:48:58.248,-1.7172,-1.12823,-0.100072,0,0,0,-1.71722,-1.12823,-0.100068
 17:48:58.248,-1.7178,-1.12777,-0.100207,0,0,0,-1.71782,-1.12777,-0.100203
 17:48:58.248,-1.71724,-1.12679,-0.100306,0,0,0,-1.71726,-1.12679,-0.100302
 17:48:58.249,-1.71667,-1.1258,-0.100431,0,0,0,-1.71669,-1.1258,-0.100428
 17:48:58.250,-1.71668,-1.12483,-0.100557,0,0,0,-1.7167,-1.12483,-0.100553
 17:48:58.250,-1.71669,-1.12503,-0.100661,0,0,0,-1.71671,-1.12503,-0.100657
 17:48:58.251,-1.69949,-1.12523,-0.100778,0,0,0,-1.71673,-1.12523,-0.100775
 17:48:58.251,-2.50028,-1.1253,-0.100812,0,0,0,-2.51739,-1.1253,-0.100808
 17:48:58.252,-2.49307,-1.12666,-0.100836,0,0,0,-2.51001,-1.12666,-0.100832
 17:48:58.252,-2.48594,-1.12801,-0.100861,0,0,0,-2.50271,-1.12801,-0.100856
 17:48:58.253,-2.47831,-1.12935,-0.100886,0,0,0,-2.49491,-1.12935,-0.100882
 17:48:58.253,-2.47126,-1.13008,-0.100965,0,0,0,-2.4877,-1.13008,-0.10096
 17:48:58.254,-2.46427,-1.13133,-0.101073,0,0,0,-2.48054,-1.13133,-0.101068
 17:48:58.254,-2.45735,-1.13256,-0.101182,0,0,0,-2.47345,-1.13256,-0.101177
 17:48:58.255,-2.44992,-1.13379,-0.101292,0,0,0,-2.46587,-1.13379,-0.101286
 17:48:58.255,-2.44266,-1.13386,-0.101435,0,0,0,-2.45845,-1.13386,-0.101429
 17:48:58.256,-2.43547,-1.13393,-0.101579,0,0,0,-2.4511,-1.13393,-0.101573
 17:48:58.256,-2.42835,-1.13401,-0.101722,0,0,0,-2.44383,-1.13401,-0.101716
 17:48:58.257,-2.42073,-1.13408,-0.101866,0,0,0,-2.43605,-1.13408,-0.10186
 17:48:58.257,-2.41312,-1.13414,-0.101945,0,0,0,-2.42829,-1.13414,-0.101939
 17:48:58.258,-2.40559,-1.13421,-0.102024,0,0,0,-2.42061,-1.13421,-0.102018
 17:48:58.258,-2.39814,-1.13427,-0.102104,0,0,0,-2.413,-1.13427,-0.102097
 17:48:58.259,-2.39075,-1.13433,-0.102183,0,0,0,-2.40547,-1.13433,-0.102177
 17:48:58.259,-2.38345,-1.1344,-0.102262,0,0,0,-2.39801,-1.1344,-0.102256
 17:48:58.260,-2.37621,-1.13446,-0.102342,0,0,0,-2.39063,-1.13446,-0.102336
 17:48:58.260,-2.36905,-1.13452,-0.102421,0,0,0,-2.38333,-1.13452,-0.102415
 17:48:58.261,-2.36196,-1.13458,-0.102501,0,0,0,-2.37609,-1.13458,-0.102495
 17:48:58.261,-2.35494,-1.13464,-0.10258,0,0,0,-2.36893,-1.13464,-0.102574
 17:48:58.261,-2.34799,-1.1347,-0.10266,0,0,0,-2.36184,-1.1347,-0.102654
 17:48:58.262,-2.34111,-1.13476,-0.10274,0,0,0,-2.35482,-1.13476,-0.102733
 17:48:58.263,-2.3343,-1.13482,-0.102819,0,0,0,-2.34788,-1.13482,-0.102813
 17:48:58.263,-2.32755,-1.13488,-0.102899,0,0,0,-2.341,-1.13488,-0.102893
 17:48:58.264,-2.32088,-1.13493,-0.102979,0,0,0,-2.33419,-1.13493,-0.102972
 17:48:58.264,-2.31427,-1.13499,-0.103059,0,0,0,-2.32744,-1.13499,-0.103052
 17:48:58.265,-2.30772,-1.13505,-0.103138,0,0,0,-2.32077,-1.13505,-0.103132
 17:48:58.265,-2.30125,-1.1351,-0.103218,0,0,0,-2.31416,-1.1351,-0.103212
 17:48:58.266,-2.29483,-1.13516,-0.103298,0,0,0,-2.30762,-1.13516,-0.103292
 17:48:58.266,-2.28849,-1.13521,-0.103378,0,0,0,-2.30114,-1.13521,-0.103371
 17:48:58.267,-2.2822,-1.13527,-0.103458,0,0,0,-2.29473,-1.13527,-0.103451
 17:48:58.267,-2.27598,-1.13532,-0.103538,0,0,0,-2.28838,-1.13532,-0.103531
 17:48:58.268,-2.26982,-1.13537,-0.103618,0,0,0,-2.2821,-1.13537,-0.103611
 17:48:58.268,-2.26372,-1.13543,-0.103698,0,0,0,-2.27588,-1.13543,-0.103691
 17:48:58.269,-2.25768,-1.13548,-0.103778,0,0,0,-2.26972,-1.13548,-0.103771
 17:48:58.269,-2.2517,-1.13553,-0.103858,0,0,0,-2.26362,-1.13553,-0.103851
 17:48:58.270,-2.24579,-1.13558,-0.103938,0,0,0,-2.25758,-1.13558,-0.103931
 17:48:58.270,-2.23993,-1.13563,-0.104018,0,0,0,-2.25161,-1.13563,-0.104012
 17:48:58.271,-2.23413,-1.13568,-0.104099,0,0,0,-2.24569,-1.13568,-0.104092
 17:48:58.271,-2.22839,-1.13573,-0.104179,0,0,0,-2.23983,-1.13573,-0.104172
 17:48:58.272,-2.2227,-1.13578,-0.104259,0,0,0,-2.23403,-1.13578,-0.104252
 17:48:58.272,-2.21708,-1.13583,-0.104339,0,0,0,-2.22829,-1.13583,-0.104332
 17:48:58.273,-2.2115,-1.13588,-0.10442,0,0,0,-2.22261,-1.13588,-0.104413
 17:48:58.273,-2.20599,-1.13592,-0.1045,0,0,0,-2.21698,-1.13592,-0.104493
 17:48:58.274,-2.20053,-1.13597,-0.10458,0,0,0,-2.21141,-1.13597,-0.104573
 17:48:58.274,-2.19512,-1.13602,-0.104661,0,0,0,-2.2059,-1.13602,-0.104654
 17:48:58.275,-2.1898,-1.13493,-0.104824,0,0,0,-2.20047,-1.13493,-0.104817
 17:48:58.275,-2.18453,-1.13385,-0.104986,0,0,0,-2.1951,-1.13385,-0.10498
 17:48:58.276,-2.17932,-1.13278,-0.105148,0,0,0,-2.18978,-1.13278,-0.105142
 17:48:58.276,-2.17478,-1.13129,-0.105357,0,0,0,-2.18513,-1.13129,-0.105351
 17:48:58.277,-2.17023,-1.13036,-0.105545,0,0,0,-2.18047,-1.13035,-0.105539
 17:48:58.277,-2.16571,-1.12942,-0.105732,0,0,0,-2.17586,-1.12942,-0.105726
 17:48:58.277,-2.16125,-1.1285,-0.105919,0,0,0,-2.17129,-1.1285,-0.105913
 17:48:58.278,-2.15683,-1.12759,-0.106105,0,0,0,-2.16677,-1.12759,-0.1061
 17:48:58.279,-2.15245,-1.12669,-0.106291,0,0,0,-2.16229,-1.12669,-0.106286
 17:48:58.279,-2.14815,-1.12629,-0.106508,0,0,0,-2.1579,-1.12629,-0.106503
 17:48:58.280,-2.14329,-1.12654,-0.106597,0,0,0,-2.15294,-1.12654,-0.106592
 17:48:58.280,-2.13907,-1.12682,-0.106634,0,0,0,-2.14862,-1.12682,-0.106628
 17:48:58.281,-2.13489,-1.12705,-0.106604,0,0,0,-2.14434,-1.12705,-0.106599
 17:48:58.281,-2.13076,-1.12786,-0.106592,0,0,0,-2.14012,-1.12786,-0.106587
 17:48:58.282,-2.12666,-1.12813,-0.106722,0,0,0,-2.13592,-1.12813,-0.106717
 17:48:58.282,-2.12261,-1.12899,-0.106857,0,0,0,-2.13178,-1.12899,-0.106851
 17:48:58.283,-2.11862,-1.12983,-0.106952,0,0,0,-2.1277,-1.12983,-0.106946
 17:48:58.283,-2.11467,-1.13057,-0.10698,0,0,0,-2.12367,-1.13057,-0.106974
 17:48:58.284,-2.11076,-1.13065,-0.107017,0,0,0,-2.11967,-1.13065,-0.107011
 17:48:58.284,-2.10687,-1.13137,-0.107033,0,0,0,-2.11569,-1.13136,-0.107027
 17:48:58.285,-2.10242,-1.13214,-0.107144,0,0,0,-2.11115,-1.13214,-0.107138
 17:48:58.285,-2.09802,-1.13347,-0.107273,0,0,0,-2.10665,-1.13347,-0.107267
 17:48:58.286,-2.09425,-1.13358,-0.107431,0,0,0,-2.1028,-1.13358,-0.107425
 17:48:58.286,-2.09055,-1.13368,-0.107508,0,0,0,-2.09902,-1.13368,-0.107502
 17:48:58.287,-2.08688,-1.13374,-0.107626,0,0,0,-2.09527,-1.13374,-0.10762
 17:48:58.287,-2.08379,-1.13325,-0.107713,0,0,0,-2.09208,-1.13325,-0.107707
 17:48:58.288,-2.08069,-1.13336,-0.107726,0,0,0,-2.0889,-1.13336,-0.10772
 17:48:58.288,-2.07704,-1.13287,-0.10784,0,0,0,-2.08517,-1.13287,-0.107834
 17:48:58.289,-2.07346,-1.13236,-0.108033,0,0,0,-2.08151,-1.13236,-0.108027
 17:48:58.289,-2.06988,-1.13245,-0.108139,0,0,0,-2.07785,-1.13245,-0.108133
 17:48:58.290,-2.06575,-1.13201,-0.108147,0,0,0,-2.07364,-1.13201,-0.108141
 17:48:58.290,-2.06225,-1.13156,-0.108207,0,0,0,-2.07006,-1.13156,-0.108201
 17:48:58.291,-2.05879,-1.13109,-0.108307,0,0,0,-2.06652,-1.13109,-0.108301
 17:48:58.291,-2.05538,-1.13121,-0.108439,0,0,0,-2.06304,-1.13121,-0.108433
 17:48:58.292,-2.05208,-1.13139,-0.108555,0,0,0,-2.05966,-1.13139,-0.108549
 17:48:58.292,-2.0488,-1.13163,-0.108619,0,0,0,-2.05631,-1.13163,-0.108613
 17:48:58.293,-2.0455,-1.13124,-0.108759,0,0,0,-2.05293,-1.13124,-0.108753
 17:48:58.293,-2.04161,-1.13076,-0.108872,0,0,0,-2.04897,-1.13076,-0.108866
 17:48:58.294,-2.03778,-1.12968,-0.108952,0,0,0,-2.04506,-1.12968,-0.108946
 17:48:58.294,-2.03399,-1.12922,-0.109064,0,0,0,-2.0412,-1.12921,-0.109058
 17:48:58.295,-2.03023,-1.12878,-0.109202,0,0,0,-2.03736,-1.12878,-0.109197
 17:48:58.295,-2.02714,-1.12839,-0.109366,0,0,0,-2.0342,-1.12839,-0.10936
 17:48:58.296,-2.02473,-1.1281,-0.109488,0,0,0,-2.03173,-1.1281,-0.109482
 17:48:58.296,-2.02238,-1.12842,-0.109589,0,0,0,-2.0293,-1.12842,-0.109583
 17:48:58.297,-2.02002,-1.12871,-0.109743,0,0,0,-2.02688,-1.1287,-0.109737
 17:48:58.297,-2.01766,-1.12891,-0.109925,0,0,0,-2.02445,-1.1289,-0.109919
 17:48:58.298,-2.01473,-1.12908,-0.110014,0,0,0,-2.02145,-1.12908,-0.110008
 17:48:58.298,-2.01178,-1.1298,-0.110058,0,0,0,-2.01843,-1.1298,-0.110052
 17:48:58.299,-2.00882,-1.12995,-0.11015,0,0,0,-2.0154,-1.12994,-0.110144
 17:48:58.299,-2.00527,-1.12956,-0.110171,0,0,0,-2.01179,-1.12956,-0.110165
 17:48:58.300,-2.00238,-1.12976,-0.110064,0,0,0,-2.00883,-1.12975,-0.110059
 17:48:58.300,-2.00069,-1.12988,-0.11005,0,0,0,-2.00708,-1.12988,-0.110044
 17:48:58.301,-1.99908,-1.13057,-0.110079,0,0,0,-2.0054,-1.13057,-0.110074
 17:48:58.301,-1.99698,-1.13131,-0.110135,0,0,0,-2.00324,-1.13131,-0.110129
 17:48:58.302,-1.99539,-1.13258,-0.110159,0,0,0,-2.00159,-1.13258,-0.110153
 17:48:58.302,-1.99312,-1.13262,-0.110253,0,0,0,-1.99926,-1.13262,-0.110247
 17:48:58.303,-1.99027,-1.1327,-0.110348,0,0,0,-1.99635,-1.13269,-0.110342
 17:48:58.303,-1.98695,-1.13279,-0.110427,0,0,0,-1.99297,-1.13279,-0.110421
 17:48:58.304,-1.98372,-1.13287,-0.110519,0,0,0,-1.98968,-1.13287,-0.110513
 17:48:58.304,-1.98051,-1.13295,-0.110571,0,0,0,-1.9864,-1.13295,-0.110565
 17:48:58.305,-1.97795,-1.13309,-0.11057,0,0,0,-1.98378,-1.13309,-0.110564
 17:48:58.305,-1.9754,-1.13321,-0.110635,0,0,0,-1.98118,-1.13321,-0.110629
 17:48:58.306,-1.9723,-1.13336,-0.11074,0,0,0,-1.97802,-1.13336,-0.110734
 17:48:58.306,-1.96978,-1.13292,-0.110812,0,0,0,-1.97545,-1.13292,-0.110806
 17:48:58.307,-1.96673,-1.13242,-0.110884,0,0,0,-1.97234,-1.13242,-0.110878
 17:48:58.307,-1.96431,-1.13127,-0.11108,0,0,0,-1.96986,-1.13127,-0.111074
 17:48:58.308,-1.96078,-1.13016,-0.111235,0,0,0,-1.96627,-1.13016,-0.111229
 17:48:58.308,-1.95838,-1.12913,-0.111312,0,0,0,-1.96382,-1.12912,-0.111307
 17:48:58.309,-1.95541,-1.12876,-0.11137,0,0,0,-1.9608,-1.12876,-0.111365
 17:48:58.309,-1.95306,-1.12843,-0.111468,0,0,0,-1.9584,-1.12843,-0.111462
 17:48:58.310,-1.95076,-1.1281,-0.111564,0,0,0,-1.95604,-1.1281,-0.111558
 17:48:58.310,-1.94905,-1.12828,-0.111628,0,0,0,-1.95428,-1.12828,-0.111622
 17:48:58.311,-1.9462,-1.12845,-0.111718,0,0,0,-1.95138,-1.12845,-0.111713
 17:48:58.311,-1.94395,-1.12809,-0.111815,0,0,0,-1.94907,-1.12808,-0.111809
 17:48:58.312,-1.94172,-1.1283,-0.111932,0,0,0,-1.94679,-1.1283,-0.111926
 17:48:58.312,-1.93952,-1.12788,-0.112055,0,0,0,-1.94454,-1.12788,-0.112049
 17:48:58.313,-1.93728,-1.12806,-0.11212,0,0,0,-1.94225,-1.12806,-0.112115
 17:48:58.314,-1.93506,-1.12826,-0.112146,0,0,0,-1.93998,-1.12826,-0.112141
 17:48:58.314,-1.93293,-1.12902,-0.112138,0,0,0,-1.9378,-1.12902,-0.112132
 17:48:58.314,-1.93143,-1.12978,-0.112195,0,0,0,-1.93625,-1.12978,-0.112189
 17:48:58.315,-1.92996,-1.13115,-0.112272,0,0,0,-1.93473,-1.13115,-0.112266
 17:48:58.315,-1.92798,-1.13254,-0.112296,0,0,0,-1.93271,-1.13254,-0.11229
 17:48:58.316,-1.92599,-1.13391,-0.112294,0,0,0,-1.93067,-1.13391,-0.112288
 17:48:58.317,-1.924,-1.13581,-0.112301,0,0,0,-1.92863,-1.13581,-0.112295
 17:48:58.317,-1.92139,-1.13763,-0.112416,0,0,0,-1.92598,-1.13763,-0.112409
 17:48:58.317,-1.9188,-1.13886,-0.112538,0,0,0,-1.92334,-1.13886,-0.112531
 17:48:58.318,-1.91681,-1.14005,-0.112567,0,0,0,-1.9213,-1.14005,-0.112561
 17:48:58.318,-1.91488,-1.14004,-0.112661,0,0,0,-1.91933,-1.14004,-0.112654
