时间,pitch,roll,yaw,gyroX_bias,gyroY_bias,gyroZ_bias,
 20:58:49.354,-1.557,1.61528,-0.0219487,0,0,0,1.593,-1.505,0.192
 20:58:49.362,-1.55587,1.61472,-0.0219335,0,0,0,1.593,-1.505,0.192
 20:58:49.372,-1.55647,1.61474,-0.0219341,0,0,0,1.593,-1.505,0.192
 20:58:49.383,-1.55591,1.61419,-0.021919,0,0,0,1.593,-1.511,0.192
 20:58:49.393,-1.55593,1.61362,-0.0219036,0,0,0,1.593,-1.511,0.192
 20:58:49.403,-1.55536,1.61306,-0.0218884,0,0,0,1.593,-1.511,0.192
 20:58:49.413,-1.55482,1.6131,-0.0218895,0,0,0,1.593,-1.511,0.192
 20:58:49.422,-1.55428,1.61314,-0.0218905,0,0,0,1.593,-1.511,0.192
 20:58:49.432,-1.55315,1.61258,-0.0218754,0,0,0,1.593,-1.511,0.192
 20:58:49.442,-1.55321,1.61263,-0.0218766,0,0,0,1.593,-1.511,0.192
 20:58:49.452,-1.5527,1.61269,-0.0218782,0,0,0,1.593,-1.511,0.192
 20:58:49.462,-1.55219,1.61217,-0.0218642,0,0,0,1.593,-1.511,0.192
 20:58:49.472,-1.55112,1.61165,-0.0218502,0,0,0,1.593,-1.511,0.192
 20:58:49.482,-1.55121,1.61172,-0.0218521,0,0,0,1.593,-1.511,0.192
 20:58:49.492,-1.5513,1.61121,-0.0218383,0,0,0,1.593,-1.511,0.192
 20:58:49.503,-1.55083,1.61072,-0.0218251,0,0,0,1.593,-1.511,0.192
 20:58:49.513,-1.55034,1.61022,-0.0218116,0,0,0,1.593,-1.511,0.192
 20:58:49.523,-1.54927,1.61029,-0.0218134,0,0,0,1.593,-1.511,0.192
 20:58:49.533,-1.54938,1.61037,-0.0218156,0,0,0,1.593,-1.511,0.192
 20:58:49.543,-1.5483,1.61042,-0.0218169,0,0,0,1.593,-1.511,0.192
 20:58:49.553,-1.54783,1.61049,-0.0218187,0,0,0,1.593,-1.511,0.192
 20:58:49.563,-1.54737,1.61057,-0.0218209,0,0,0,1.593,-1.511,0.192
 20:58:49.573,-1.54753,1.6101,-0.0218083,0,0,0,1.593,-1.511,0.192
 20:58:49.583,-1.54711,1.61022,-0.0218114,0,0,0,1.593,-1.511,0.192
 20:58:49.593,-1.54666,1.60972,-0.0217981,0,0,0,1.593,-1.511,0.192
 20:58:49.603,-1.54622,1.60923,-0.0217849,0,0,0,1.593,-1.511,0.192
 20:58:49.613,-1.54578,1.60875,-0.0217718,0,0,0,1.593,-1.511,0.192
 20:58:49.623,-1.54532,1.60939,-0.0217891,0,0,0,1.593,-1.511,0.192
 20:58:49.632,-1.54488,1.60947,-0.0217911,0,0,0,1.593,-1.511,0.192
 20:58:49.645,-1.54501,1.60896,-0.0217776,0,0,0,1.593,-1.511,0.192
 20:58:49.652,-1.54513,1.60845,-0.0217637,0,0,0,1.593,-1.511,0.192
 20:58:49.662,-1.54468,1.60794,-0.02175,0,0,0,1.593,-1.511,0.192
 20:58:49.673,-1.54422,1.60744,-0.0217365,0,0,0,1.593,-1.511,0.192
 20:58:49.683,-1.54377,1.60752,-0.0217386,0,0,0,1.593,-1.511,0.192
 20:58:49.693,-1.54333,1.60759,-0.0217407,0,0,0,1.593,-1.511,0.192
 20:58:49.703,-1.54292,1.6077,-0.0217436,0,0,0,1.593,-1.511,0.192
 20:58:49.713,-1.54136,1.60781,-0.0217465,0,0,0,1.593,-1.511,0.192
 20:58:49.723,-1.54041,1.60794,-0.0217499,0,0,0,1.593,-1.511,0.192
 20:58:49.733,-1.53945,1.60804,-0.0217527,0,0,0,1.593,-1.505,0.192
 20:58:49.743,-1.53908,1.60815,-0.0217555,0,0,0,1.593,-1.505,0.192
 20:58:49.753,-1.53812,1.60823,-0.0217579,0,0,0,1.593,-1.505,0.192
 20:58:49.763,-1.53719,1.60834,-0.0217606,0,0,0,1.593,-1.505,0.192
 20:58:49.773,-1.53682,1.60842,-0.0217629,0,0,0,1.593,-1.505,0.192
 20:58:49.783,-1.53646,1.60851,-0.0217652,0,0,0,1.593,-1.505,0.192
 20:58:49.793,-1.53609,1.60915,-0.0217825,0,0,0,1.593,-1.505,0.192
 20:58:49.803,-1.53572,1.60921,-0.0217841,0,0,0,1.593,-1.505,0.192
 20:58:49.813,-1.53538,1.60871,-0.0217707,0,0,0,1.593,-1.505,0.192
 20:58:49.823,-1.53502,1.60878,-0.0217725,0,0,0,1.593,-1.505,0.192
 20:58:49.833,-1.53466,1.60884,-0.0217742,0,0,0,1.593,-1.505,0.192
 20:58:49.843,-1.53431,1.60833,-0.0217605,0,0,0,1.593,-1.505,0.192
 20:58:49.853,-1.5334,1.60784,-0.0217474,0,0,0,1.593,-1.505,0.192
 20:58:49.863,-1.53309,1.60795,-0.0217502,0,0,0,1.593,-1.505,0.192
 20:58:49.873,-1.5322,1.60748,-0.0217376,0,0,0,1.593,-1.505,0.192
 20:58:49.883,-1.5319,1.60759,-0.0217406,0,0,0,1.593,-1.505,0.192
 20:58:49.893,-1.53161,1.6077,-0.0217435,0,0,0,1.593,-1.505,0.192
 20:58:49.903,-1.5313,1.60779,-0.0217459,0,0,0,1.593,-1.505,0.192
 20:58:49.913,-1.53159,1.6079,-0.0217488,0,0,0,1.593,-1.505,0.192
 20:58:49.923,-1.53131,1.60802,-0.0217521,0,0,0,1.593,-1.505,0.192
 20:58:49.933,-1.53101,1.60811,-0.0217545,0,0,0,1.599,-1.505,0.192
 20:58:49.943,-1.53013,1.6082,-0.0217568,0,0,0,1.599,-1.505,0.192
 20:58:49.953,-1.52982,1.60769,-0.0217433,0,0,0,1.593,-1.505,0.192
 20:58:49.963,-1.52952,1.60719,-0.02173,0,0,0,1.593,-1.505,0.192
 20:58:49.973,-1.52922,1.60727,-0.0217321,0,0,0,1.593,-1.505,0.192
 20:58:49.983,-1.52892,1.60735,-0.0217343,0,0,0,1.593,-1.505,0.192
 20:58:49.993,-1.52862,1.60743,-0.0217364,0,0,0,1.593,-1.505,0.192
 20:58:50.003,-1.52833,1.60751,-0.0217385,0,0,0,1.599,-1.505,0.192
 20:58:50.013,-1.52804,1.60759,-0.0217405,0,0,0,1.599,-1.505,0.192
 20:58:50.023,-1.52836,1.60712,-0.0217281,0,0,0,1.599,-1.505,0.192
 20:58:50.033,-1.5281,1.60723,-0.0217311,0,0,0,1.599,-1.505,0.192
 20:58:50.043,-1.52784,1.60734,-0.0217341,0,0,0,1.599,-1.505,0.192
 20:58:50.053,-1.52756,1.60742,-0.0217362,0,0,0,1.599,-1.505,0.192
 20:58:50.064,-1.52784,1.60749,-0.0217379,0,0,0,1.599,-1.505,0.192
 20:58:50.073,-1.52813,1.60699,-0.0217246,0,0,0,1.599,-1.505,0.192
 20:58:50.083,-1.52786,1.60709,-0.0217272,0,0,0,1.599,-1.505,0.192
 20:58:50.093,-1.52757,1.60659,-0.0217141,0,0,0,1.599,-1.505,0.192
 20:58:50.103,-1.52731,1.60612,-0.0217014,0,0,0,1.593,-1.505,0.192
 20:58:50.113,-1.52704,1.60565,-0.0216889,0,0,0,1.593,-1.505,0.192
 20:58:50.123,-1.52678,1.60576,-0.0216919,0,0,0,1.593,-1.505,0.192
 20:58:50.133,-1.52652,1.60587,-0.0216949,0,0,0,1.593,-1.505,0.192
 20:58:50.143,-1.52625,1.60597,-0.0216974,0,0,0,1.593,-1.505,0.192
 20:58:50.153,-1.52598,1.60606,-0.0216999,0,0,0,1.599,-1.505,0.192
 20:58:50.163,-1.52514,1.60615,-0.0217023,0,0,0,1.599,-1.505,0.192
 20:58:50.173,-1.52431,1.60624,-0.0217048,0,0,0,1.599,-1.505,0.192
 20:58:50.183,-1.52409,1.60579,-0.0216927,0,0,0,1.599,-1.505,0.192
 20:58:50.193,-1.52385,1.6059,-0.0216956,0,0,0,1.599,-1.505,0.192
 20:58:50.203,-1.52362,1.60601,-0.0216986,0,0,0,1.599,-1.505,0.192
 20:58:50.213,-1.5234,1.60612,-0.0217014,0,0,0,1.599,-1.505,0.192
 20:58:50.223,-1.52317,1.60565,-0.021689,0,0,0,1.599,-1.505,0.192
 20:58:50.234,-1.52295,1.60519,-0.0216766,0,0,0,1.599,-1.505,0.192
 20:58:50.243,-1.52271,1.60529,-0.0216793,0,0,0,1.599,-1.505,0.192
 20:58:50.253,-1.52248,1.60539,-0.021682,0,0,0,1.599,-1.505,0.192
 20:58:50.263,-1.52226,1.6055,-0.021685,0,0,0,1.599,-1.505,0.192
 20:58:50.273,-1.52147,1.60562,-0.0216881,0,0,0,1.599,-1.505,0.192
 20:58:50.283,-1.52127,1.60573,-0.0216911,0,0,0,1.599,-1.505,0.192
 20:58:50.293,-1.52105,1.60582,-0.0216936,0,0,0,1.599,-1.505,0.192
 20:58:50.304,-1.52141,1.60592,-0.0216961,0,0,0,1.599,-1.505,0.192
 20:58:50.314,-1.52176,1.60601,-0.0216986,0,0,0,1.599,-1.505,0.192
 20:58:50.324,-1.52155,1.60612,-0.0217015,0,0,0,1.599,-1.505,0.192
 20:58:50.334,-1.52136,1.60567,-0.0216894,0,0,0,1.599,-1.505,0.192
 20:58:50.344,-1.52117,1.60522,-0.0216775,0,0,0,1.599,-1.505,0.192
 20:58:50.354,-1.52041,1.60477,-0.0216657,0,0,0,1.599,-1.505,0.192
 20:58:50.364,-1.52021,1.60432,-0.0216536,0,0,0,1.599,-1.505,0.192
 20:58:50.374,-1.5206,1.60444,-0.021657,0,0,0,1.599,-1.505,0.192
 20:58:50.383,-1.52036,1.60452,-0.021659,0,0,0,1.599,-1.505,0.192
 20:58:50.394,-1.52013,1.60461,-0.0216614,0,0,0,1.599,-1.505,0.192
 20:58:50.404,-1.51992,1.60472,-0.0216642,0,0,0,1.599,-1.505,0.192
 20:58:50.414,-1.52029,1.60425,-0.0216517,0,0,0,1.599,-1.505,0.192
 20:58:50.424,-1.52012,1.60381,-0.0216402,0,0,0,1.593,-1.505,0.192
 20:58:50.434,-1.52048,1.60335,-0.021628,0,0,0,1.593,-1.505,0.192
 20:58:50.444,-1.52027,1.60347,-0.0216311,0,0,0,1.593,-1.505,0.192
 20:58:50.454,-1.52006,1.60301,-0.021619,0,0,0,1.593,-1.505,0.192
 20:58:50.464,-1.51931,1.60259,-0.0216078,0,0,0,1.593,-1.505,0.192
 20:58:50.473,-1.5197,1.60215,-0.0215962,0,0,0,1.593,-1.505,0.192
 20:58:50.484,-1.52009,1.60173,-0.0215849,0,0,0,1.593,-1.505,0.192
 20:58:50.494,-1.51992,1.60189,-0.0215893,0,0,0,1.593,-1.505,0.192
 20:58:50.504,-1.51974,1.60148,-0.0215784,0,0,0,1.593,-1.511,0.192
 20:58:50.514,-1.51957,1.60108,-0.0215676,0,0,0,1.593,-1.511,0.192
 20:58:50.524,-1.51938,1.60181,-0.0215871,0,0,0,1.593,-1.511,0.192
 20:58:50.534,-1.51979,1.60198,-0.0215915,0,0,0,1.593,-1.511,0.192
 20:58:50.544,-1.52021,1.601,-0.0215657,0,0,0,1.593,-1.511,0.192
 20:58:50.554,-1.52006,1.60005,-0.0215405,0,0,0,1.593,-1.511,0.192
 20:58:50.564,-1.52043,1.60021,-0.0215445,0,0,0,1.593,-1.511,0.192
 20:58:50.574,-1.52024,1.5998,-0.0215337,0,0,0,1.593,-1.511,0.192
 20:58:50.584,-1.52062,1.59997,-0.0215382,0,0,0,1.593,-1.511,0.192
 20:58:50.594,-1.52042,1.60014,-0.0215427,0,0,0,1.593,-1.511,0.192
 20:58:50.604,-1.52023,1.59973,-0.0215318,0,0,0,1.593,-1.511,0.192
 20:58:50.614,-1.52005,1.59876,-0.0215062,0,0,0,1.593,-1.511,0.192
 20:58:50.624,-1.51986,1.59894,-0.021511,0,0,0,1.593,-1.511,0.192
 20:58:50.634,-1.52024,1.59912,-0.0215157,0,0,0,1.593,-1.511,0.192
 20:58:50.644,-1.52004,1.59928,-0.02152,0,0,0,1.593,-1.511,0.192
 20:58:50.654,-1.51984,1.59946,-0.0215247,0,0,0,1.593,-1.511,0.192
 20:58:50.664,-1.51911,1.59967,-0.0215302,0,0,0,1.593,-1.511,0.192
 20:58:50.674,-1.51894,1.5987,-0.0215046,0,0,0,1.593,-1.511,0.192
 20:58:50.684,-1.51877,1.59832,-0.0214945,0,0,0,1.593,-1.511,0.192
 20:58:50.694,-1.51803,1.59794,-0.0214846,0,0,0,1.593,-1.511,0.192
 20:58:50.704,-1.5173,1.59757,-0.0214747,0,0,0,1.588,-1.511,0.192
 20:58:50.714,-1.51656,1.59777,-0.0214798,0,0,0,1.588,-1.511,0.192
 20:58:50.724,-1.5164,1.59796,-0.0214849,0,0,0,1.593,-1.511,0.192
 20:58:50.734,-1.51623,1.59813,-0.0214895,0,0,0,1.593,-1.511,0.192
 20:58:50.744,-1.51664,1.59772,-0.0214788,0,0,0,1.593,-1.511,0.192
 20:58:50.754,-1.51706,1.59676,-0.0214533,0,0,0,1.593,-1.511,0.192
 20:58:50.764,-1.51631,1.59637,-0.0214429,0,0,0,1.588,-1.511,0.192
 20:58:50.774,-1.51556,1.59656,-0.0214479,0,0,0,1.588,-1.511,0.192
 20:58:50.784,-1.51482,1.59732,-0.0214681,0,0,0,1.593,-1.511,0.192
 20:58:50.795,-1.51408,1.59806,-0.0214877,0,0,0,1.593,-1.511,0.192
 20:58:50.805,-1.51337,1.59767,-0.0214774,0,0,0,1.593,-1.505,0.192
 20:58:50.814,-1.51324,1.59729,-0.0214672,0,0,0,1.593,-1.505,0.192
 20:58:50.824,-1.51314,1.59635,-0.0214423,0,0,0,1.593,-1.505,0.192
 20:58:50.834,-1.51304,1.59601,-0.0214334,0,0,0,1.588,-1.505,0.192
 20:58:50.844,-1.51236,1.59623,-0.0214393,0,0,0,1.593,-1.505,0.192
 20:58:50.854,-1.51168,1.59645,-0.0214452,0,0,0,1.593,-1.505,0.192
 20:58:50.864,-1.51101,1.59668,-0.021451,0,0,0,1.593,-1.505,0.192
 20:58:50.874,-1.51036,1.59633,-0.021442,0,0,0,1.593,-1.505,0.192
 20:58:50.884,-1.51028,1.59655,-0.0214478,0,0,0,1.593,-1.505,0.192
 20:58:50.894,-1.5102,1.5962,-0.0214384,0,0,0,1.593,-1.505,0.192
 20:58:50.904,-1.50956,1.59586,-0.0214295,0,0,0,1.593,-1.505,0.192
 20:58:50.914,-1.50893,1.5961,-0.0214359,0,0,0,1.593,-1.505,0.192
 20:58:50.925,-1.50829,1.59633,-0.0214418,0,0,0,1.593,-1.505,0.192
 20:58:50.935,-1.50823,1.59655,-0.0214476,0,0,0,1.593,-1.505,0.192
 20:58:50.945,-1.50818,1.59621,-0.0214386,0,0,0,1.593,-1.505,0.192
 20:58:50.954,-1.50814,1.59587,-0.0214297,0,0,0,1.593,-1.505,0.192
 20:58:50.964,-1.50866,1.59552,-0.0214205,0,0,0,1.593,-1.505,0.192
 20:58:50.974,-1.50858,1.59573,-0.0214261,0,0,0,1.593,-1.505,0.192
 20:58:50.984,-1.50851,1.59652,-0.0214469,0,0,0,1.593,-1.505,0.192
 20:58:50.994,-1.50843,1.5973,-0.0214674,0,0,0,1.593,-1.505,0.192
 20:58:51.004,-1.50837,1.59751,-0.021473,0,0,0,1.593,-1.505,0.192
 20:58:51.015,-1.50831,1.59657,-0.0214481,0,0,0,1.593,-1.505,0.192
 20:58:51.025,-1.50824,1.59619,-0.0214383,0,0,0,1.593,-1.505,0.192
 20:58:51.035,-1.50815,1.59696,-0.0214585,0,0,0,1.593,-1.505,0.192
 20:58:51.045,-1.50748,1.59714,-0.0214633,0,0,0,1.593,-1.505,0.192
 20:58:51.055,-1.50796,1.59731,-0.0214677,0,0,0,1.593,-1.505,0.192
 20:58:51.064,-1.50733,1.59637,-0.0214429,0,0,0,1.593,-1.505,0.192
 20:58:51.075,-1.50728,1.59543,-0.0214183,0,0,0,1.593,-1.505,0.192
 20:58:51.085,-1.5072,1.59505,-0.0214084,0,0,0,1.593,-1.505,0.192
 20:58:51.095,-1.50711,1.59524,-0.0214132,0,0,0,1.593,-1.505,0.192
 20:58:51.105,-1.50703,1.59544,-0.0214185,0,0,0,1.593,-1.505,0.192
 20:58:51.115,-1.50638,1.59564,-0.0214237,0,0,0,1.593,-1.505,0.192
 20:58:51.125,-1.5069,1.59585,-0.0214293,0,0,0,1.593,-1.505,0.192
 20:58:51.135,-1.50626,1.59548,-0.0214197,0,0,0,1.593,-1.505,0.192
 20:58:51.145,-1.50621,1.59512,-0.0214101,0,0,0,1.593,-1.505,0.192
 20:58:51.155,-1.50558,1.59476,-0.0214007,0,0,0,1.593,-1.505,0.192
 20:58:51.165,-1.50553,1.59498,-0.0214065,0,0,0,1.593,-1.505,0.192
 20:58:51.174,-1.50549,1.5952,-0.0214123,0,0,0,1.593,-1.505,0.192
 20:58:51.185,-1.50544,1.596,-0.0214331,0,0,0,1.593,-1.505,0.192
 20:58:51.195,-1.50597,1.59678,-0.0214538,0,0,0,1.593,-1.505,0.192
 20:58:51.205,-1.50536,1.597,-0.0214595,0,0,0,1.593,-1.505,0.192
 20:58:51.215,-1.50531,1.59662,-0.0214496,0,0,0,1.593,-1.505,0.192
 20:58:51.225,-1.50528,1.59626,-0.0214402,0,0,0,1.593,-1.505,0.192
 20:58:51.235,-1.50526,1.59591,-0.0214308,0,0,0,1.593,-1.505,0.192
 20:58:51.245,-1.50463,1.59612,-0.0214364,0,0,0,1.593,-1.505,0.192
 20:58:51.255,-1.5046,1.59633,-0.0214418,0,0,0,1.593,-1.505,0.192
 20:58:51.265,-1.50455,1.59594,-0.0214317,0,0,0,1.593,-1.505,0.192
 20:58:51.275,-1.50451,1.59557,-0.021422,0,0,0,1.593,-1.505,0.192
 20:58:51.285,-1.50447,1.59521,-0.0214125,0,0,0,1.593,-1.505,0.192
 20:58:51.295,-1.50444,1.59543,-0.0214182,0,0,0,1.593,-1.505,0.192
 20:58:51.305,-1.5044,1.59506,-0.0214086,0,0,0,1.593,-1.505,0.192
 20:58:51.315,-1.50435,1.59469,-0.0213988,0,0,0,1.593,-1.505,0.192
 20:58:51.325,-1.50371,1.59373,-0.0213736,0,0,0,1.593,-1.505,0.192
 20:58:51.335,-1.50367,1.59337,-0.0213641,0,0,0,1.593,-1.5,0.192
 20:58:51.345,-1.50305,1.59301,-0.0213547,0,0,0,1.588,-1.5,0.192
 20:58:51.355,-1.50303,1.59209,-0.0213307,0,0,0,1.588,-1.5,0.192
 20:58:51.365,-1.50299,1.59175,-0.0213217,0,0,0,1.588,-1.5,0.192
 20:58:51.375,-1.50238,1.59198,-0.0213278,0,0,0,1.588,-1.5,0.192
 20:58:51.385,-1.50236,1.59223,-0.0213344,0,0,0,1.588,-1.5,0.192
 20:58:51.395,-1.50235,1.5919,-0.0213257,0,0,0,1.588,-1.5,0.192
 20:58:51.405,-1.50232,1.59156,-0.0213167,0,0,0,1.588,-1.5,0.192
 20:58:51.415,-1.50231,1.59181,-0.0213234,0,0,0,1.588,-1.5,0.192
 20:58:51.425,-1.50229,1.59149,-0.0213148,0,0,0,1.588,-1.5,0.192
 20:58:51.435,-1.50226,1.59115,-0.0213059,0,0,0,1.588,-1.5,0.192
 20:58:51.445,-1.50225,1.59141,-0.0213127,0,0,0,1.588,-1.5,0.192
 20:58:51.455,-1.50224,1.59224,-0.0213345,0,0,0,1.588,-1.5,0.192
 20:58:51.465,-1.50222,1.59248,-0.021341,0,0,0,1.588,-1.5,0.192
 20:58:51.475,-1.50222,1.59275,-0.0213478,0,0,0,1.588,-1.5,0.192
 20:58:51.485,-1.5028,1.59243,-0.0213394,0,0,0,1.588,-1.5,0.192
 20:58:51.495,-1.50224,1.5927,-0.0213467,0,0,0,1.588,-1.5,0.192
 20:58:51.506,-1.50224,1.59296,-0.0213535,0,0,0,1.588,-1.5,0.192
 20:58:51.516,-1.50224,1.59322,-0.0213602,0,0,0,1.593,-1.5,0.192
 20:58:51.525,-1.50224,1.59405,-0.0213819,0,0,0,1.593,-1.5,0.192
 20:58:51.535,-1.50282,1.59372,-0.0213732,0,0,0,1.593,-1.5,0.192
 20:58:51.545,-1.50225,1.59282,-0.0213498,0,0,0,1.588,-1.5,0.192
 20:58:51.556,-1.50285,1.59252,-0.0213418,0,0,0,1.588,-1.5,0.192
 20:58:51.566,-1.50283,1.59219,-0.0213331,0,0,0,1.588,-1.5,0.192
 20:58:51.576,-1.50279,1.59242,-0.0213391,0,0,0,1.588,-1.5,0.192
 20:58:51.586,-1.50276,1.59264,-0.0213451,0,0,0,1.588,-1.505,0.192
 20:58:51.596,-1.50273,1.59287,-0.0213511,0,0,0,1.593,-1.5,0.192
 20:58:51.606,-1.50213,1.59253,-0.0213423,0,0,0,1.593,-1.5,0.192
 20:58:51.616,-1.5021,1.59276,-0.0213482,0,0,0,1.593,-1.5,0.192
 20:58:51.626,-1.50208,1.59299,-0.0213541,0,0,0,1.593,-1.5,0.192
 20:58:51.635,-1.50146,1.59262,-0.0213444,0,0,0,1.593,-1.5,0.192
 20:58:51.645,-1.50142,1.59283,-0.02135,0,0,0,1.593,-1.5,0.192
 20:58:51.656,-1.50082,1.59305,-0.0213558,0,0,0,1.593,-1.5,0.192
 20:58:51.665,-1.50139,1.5927,-0.0213466,0,0,0,1.593,-1.5,0.192
 20:58:51.675,-1.50137,1.59235,-0.0213374,0,0,0,1.588,-1.5,0.192
 20:58:51.685,-1.50079,1.59202,-0.0213287,0,0,0,1.588,-1.5,0.192
 20:58:51.695,-1.50136,1.59227,-0.0213352,0,0,0,1.588,-1.5,0.192
 20:58:51.705,-1.50137,1.59195,-0.0213269,0,0,0,1.588,-1.5,0.192
 20:58:51.715,-1.50196,1.59164,-0.0213188,0,0,0,1.588,-1.5,0.192
 20:58:51.725,-1.50139,1.59133,-0.0213107,0,0,0,1.588,-1.5,0.192
 20:58:51.735,-1.50138,1.59159,-0.0213174,0,0,0,1.588,-1.5,0.192
 20:58:51.745,-1.50082,1.59128,-0.0213093,0,0,0,1.588,-1.5,0.192
 20:58:51.755,-1.50082,1.59153,-0.021316,0,0,0,1.593,-1.5,0.192
 20:58:51.766,-1.50082,1.59179,-0.0213227,0,0,0,1.593,-1.5,0.192
 20:58:51.776,-1.50024,1.59204,-0.0213292,0,0,0,1.593,-1.5,0.192
 20:58:51.785,-1.50026,1.5923,-0.0213362,0,0,0,1.593,-1.5,0.192
 20:58:51.795,-1.50086,1.59257,-0.0213431,0,0,0,1.593,-1.5,0.192
 20:58:51.805,-1.50089,1.59226,-0.0213351,0,0,0,1.593,-1.5,0.192
 20:58:51.815,-1.50092,1.59196,-0.0213273,0,0,0,1.593,-1.5,0.192
 20:58:51.825,-1.50095,1.59167,-0.0213195,0,0,0,1.593,-1.5,0.192
 20:58:51.835,-1.50097,1.59194,-0.0213266,0,0,0,1.593,-1.5,0.192
 20:58:51.845,-1.50098,1.5922,-0.0213335,0,0,0,1.593,-1.5,0.192
 20:58:51.856,-1.50039,1.59186,-0.0213245,0,0,0,1.593,-1.5,0.192
 20:58:51.866,-1.50041,1.59155,-0.0213164,0,0,0,1.593,-1.5,0.192
 20:58:51.876,-1.50042,1.59122,-0.0213079,0,0,0,1.588,-1.5,0.192
 20:58:51.886,-1.50098,1.59089,-0.0212991,0,0,0,1.588,-1.5,0.192
 20:58:51.896,-1.5004,1.59057,-0.0212908,0,0,0,1.588,-1.5,0.192
 20:58:51.906,-1.50099,1.59083,-0.0212977,0,0,0,1.588,-1.5,0.192
 20:58:51.916,-1.501,1.59053,-0.0212898,0,0,0,1.588,-1.5,0.192
 20:58:51.926,-1.50101,1.59081,-0.0212971,0,0,0,1.588,-1.5,0.192
 20:58:51.936,-1.50104,1.59111,-0.0213048,0,0,0,1.593,-1.5,0.192
 20:58:51.946,-1.50107,1.59082,-0.0212973,0,0,0,1.588,-1.5,0.192
 20:58:51.956,-1.50166,1.59052,-0.0212894,0,0,0,1.588,-1.505,0.192
 20:58:51.966,-1.50108,1.58963,-0.0212661,0,0,0,1.588,-1.505,0.192
 20:58:51.976,-1.50049,1.58988,-0.0212728,0,0,0,1.588,-1.505,0.192
 20:58:51.986,-1.50049,1.59015,-0.0212799,0,0,0,1.588,-1.5,0.192
 20:58:51.996,-1.50105,1.58983,-0.0212714,0,0,0,1.588,-1.5,0.192
 20:58:52.006,-1.50104,1.58951,-0.0212629,0,0,0,1.588,-1.505,0.192
 20:58:52.016,-1.50102,1.58976,-0.0212697,0,0,0,1.588,-1.505,0.192
 20:58:52.026,-1.50043,1.5906,-0.0212915,0,0,0,1.588,-1.505,0.192
 20:58:52.036,-1.50098,1.59025,-0.0212824,0,0,0,1.588,-1.505,0.192
 20:58:52.046,-1.50095,1.58933,-0.0212584,0,0,0,1.588,-1.505,0.192
 20:58:52.056,-1.50093,1.58959,-0.0212652,0,0,0,1.588,-1.505,0.192
 20:58:52.066,-1.50093,1.58929,-0.0212572,0,0,0,1.588,-1.505,0.192
 20:58:52.076,-1.50093,1.58956,-0.0212644,0,0,0,1.588,-1.505,0.192
 20:58:52.086,-1.50151,1.58984,-0.0212716,0,0,0,1.588,-1.505,0.192
 20:58:52.097,-1.50093,1.58953,-0.0212636,0,0,0,1.588,-1.505,0.192
 20:58:52.106,-1.50152,1.5904,-0.0212863,0,0,0,1.593,-1.505,0.192
 20:58:52.116,-1.50153,1.59068,-0.0212937,0,0,0,1.593,-1.505,0.192
 20:58:52.126,-1.50152,1.59037,-0.0212854,0,0,0,1.593,-1.505,0.192
 20:58:52.136,-1.50209,1.59063,-0.0212924,0,0,0,1.593,-1.505,0.192
 20:58:52.146,-1.50206,1.5903,-0.0212837,0,0,0,1.593,-1.505,0.192
 20:58:52.157,-1.50204,1.59055,-0.0212903,0,0,0,1.593,-1.505,0.192
 20:58:52.166,-1.50143,1.59022,-0.0212817,0,0,0,1.593,-1.505,0.192
 20:58:52.176,-1.5014,1.58988,-0.0212727,0,0,0,1.593,-1.505,0.192
 20:58:52.186,-1.50136,1.58954,-0.0212638,0,0,0,1.588,-1.505,0.192
 20:58:52.197,-1.50133,1.58978,-0.0212702,0,0,0,1.588,-1.505,0.192
 20:58:52.206,-1.50134,1.59007,-0.0212777,0,0,0,1.593,-1.505,0.192
 20:58:52.216,-1.50133,1.59034,-0.0212847,0,0,0,1.593,-1.505,0.192
 20:58:52.226,-1.50134,1.59062,-0.0212921,0,0,0,1.593,-1.505,0.192
 20:58:52.236,-1.50134,1.59088,-0.021299,0,0,0,1.593,-1.505,0.192
 20:58:52.246,-1.50135,1.59058,-0.0212911,0,0,0,1.593,-1.505,0.192
 20:58:52.257,-1.50138,1.5903,-0.0212837,0,0,0,1.593,-1.505,0.192
 20:58:52.266,-1.5014,1.59002,-0.0212764,0,0,0,1.593,-1.505,0.192
 20:58:52.276,-1.5014,1.58971,-0.0212683,0,0,0,1.593,-1.505,0.192
 20:58:52.286,-1.50141,1.59,-0.0212759,0,0,0,1.593,-1.505,0.192
 20:58:52.296,-1.50142,1.59029,-0.0212833,0,0,0,1.593,-1.505,0.192
 20:58:52.306,-1.50086,1.59058,-0.0212912,0,0,0,1.593,-1.505,0.192
 20:58:52.317,-1.50088,1.59029,-0.0212834,0,0,0,1.593,-1.505,0.192
 20:58:52.326,-1.50088,1.58998,-0.0212752,0,0,0,1.593,-1.505,0.192
 20:58:52.337,-1.50088,1.59024,-0.0212823,0,0,0,1.593,-1.505,0.192
 20:58:52.347,-1.50086,1.58992,-0.0212737,0,0,0,1.593,-1.505,0.192
 20:58:52.357,-1.50085,1.5896,-0.0212653,0,0,0,1.593,-1.505,0.192
 20:58:52.367,-1.50027,1.58987,-0.0212724,0,0,0,1.593,-1.505,0.192
 20:58:52.377,-1.49972,1.58958,-0.0212648,0,0,0,1.593,-1.505,0.192
 20:58:52.386,-1.49918,1.58988,-0.0212728,0,0,0,1.593,-1.5,0.192
 20:58:52.396,-1.49864,1.59017,-0.0212803,0,0,0,1.593,-1.5,0.192
 20:58:52.406,-1.49866,1.59044,-0.0212873,0,0,0,1.593,-1.5,0.192
 20:58:52.417,-1.4981,1.59013,-0.0212791,0,0,0,1.593,-1.5,0.192
 20:58:52.427,-1.49815,1.58983,-0.0212715,0,0,0,1.593,-1.5,0.192
 20:58:52.436,-1.49819,1.59012,-0.021279,0,0,0,1.593,-1.5,0.192
 20:58:52.446,-1.49764,1.59039,-0.021286,0,0,0,1.593,-1.5,0.192
 20:58:52.457,-1.49769,1.59125,-0.0213084,0,0,0,1.593,-1.5,0.192
 20:58:52.466,-1.49773,1.59152,-0.0213155,0,0,0,1.593,-1.5,0.192
 20:58:52.477,-1.49719,1.5912,-0.0213071,0,0,0,1.593,-1.5,0.192
 20:58:52.487,-1.49782,1.59147,-0.0213142,0,0,0,1.593,-1.5,0.192
 20:58:52.497,-1.49729,1.59174,-0.0213213,0,0,0,1.593,-1.5,0.192
 20:58:52.507,-1.49734,1.59201,-0.0213283,0,0,0,1.593,-1.5,0.192
 20:58:52.517,-1.49739,1.59227,-0.0213353,0,0,0,1.593,-1.5,0.192
 20:58:52.527,-1.49801,1.59254,-0.0213421,0,0,0,1.593,-1.5,0.192
 20:58:52.537,-1.49862,1.5922,-0.0213334,0,0,0,1.593,-1.5,0.192
 20:58:52.546,-1.49866,1.59189,-0.0213252,0,0,0,1.593,-1.5,0.192
 20:58:52.556,-1.4987,1.59158,-0.021317,0,0,0,1.593,-1.5,0.192
 20:58:52.566,-1.49872,1.59125,-0.0213086,0,0,0,1.593,-1.5,0.192
 20:58:52.576,-1.49816,1.59151,-0.0213153,0,0,0,1.593,-1.5,0.192
 20:58:52.586,-1.49877,1.59119,-0.0213068,0,0,0,1.593,-1.5,0.192
 20:58:52.597,-1.49823,1.59088,-0.0212989,0,0,0,1.593,-1.5,0.192
 20:58:52.606,-1.49883,1.59057,-0.0212906,0,0,0,1.593,-1.5,0.192
 20:58:52.616,-1.49827,1.58967,-0.0212673,0,0,0,1.593,-1.5,0.192
 20:58:52.627,-1.49771,1.58993,-0.021274,0,0,0,1.593,-1.5,0.192
 20:58:52.637,-1.49832,1.5902,-0.021281,0,0,0,1.593,-1.5,0.192
 20:58:52.647,-1.49777,1.59047,-0.021288,0,0,0,1.593,-1.5,0.192
 20:58:52.656,-1.49837,1.59015,-0.0212798,0,0,0,1.593,-1.5,0.192
 20:58:52.666,-1.49781,1.58925,-0.0212563,0,0,0,1.593,-1.5,0.192
 20:58:52.677,-1.49782,1.58894,-0.021248,0,0,0,1.593,-1.5,0.192
 20:58:52.687,-1.49842,1.5892,-0.0212549,0,0,0,1.593,-1.5,0.192
 20:58:52.697,-1.49785,1.58888,-0.0212466,0,0,0,1.593,-1.5,0.192
 20:58:52.707,-1.49846,1.58916,-0.021254,0,0,0,1.593,-1.5,0.192
 20:58:52.717,-1.49792,1.58888,-0.0212465,0,0,0,1.588,-1.5,0.192
 20:58:52.727,-1.49851,1.58914,-0.0212534,0,0,0,1.593,-1.5,0.192
 20:58:52.737,-1.49853,1.58884,-0.0212456,0,0,0,1.593,-1.5,0.192
 20:58:52.747,-1.49859,1.58916,-0.0212538,0,0,0,1.593,-1.5,0.192
 20:58:52.757,-1.49805,1.58945,-0.0212615,0,0,0,1.593,-1.5,0.192
 20:58:52.767,-1.49808,1.58973,-0.0212687,0,0,0,1.593,-1.5,0.192
 20:58:52.777,-1.49753,1.58942,-0.0212607,0,0,0,1.593,-1.5,0.192
 20:58:52.786,-1.49756,1.58912,-0.0212528,0,0,0,1.593,-1.5,0.192
 20:58:52.797,-1.4976,1.58882,-0.021245,0,0,0,1.593,-1.5,0.192
 20:58:52.806,-1.4976,1.58849,-0.0212364,0,0,0,1.593,-1.5,0.192
 20:58:52.817,-1.49703,1.58874,-0.021243,0,0,0,1.593,-1.5,0.192
 20:58:52.827,-1.49703,1.58842,-0.0212344,0,0,0,1.593,-1.5,0.192
 20:58:52.837,-1.49648,1.58811,-0.0212264,0,0,0,1.593,-1.5,0.192
 20:58:52.847,-1.49651,1.58838,-0.0212335,0,0,0,1.593,-1.5,0.192
 20:58:52.857,-1.49654,1.58807,-0.0212254,0,0,0,1.593,-1.5,0.192
 20:58:52.867,-1.49601,1.58778,-0.0212179,0,0,0,1.593,-1.5,0.192
 20:58:52.877,-1.49602,1.58747,-0.0212096,0,0,0,1.588,-1.5,0.192
 20:58:52.887,-1.49548,1.58774,-0.0212169,0,0,0,1.588,-1.5,0.192
 20:58:52.897,-1.4961,1.58802,-0.0212241,0,0,0,1.588,-1.5,0.192
 20:58:52.907,-1.49555,1.58772,-0.0212161,0,0,0,1.593,-1.5,0.192
 20:58:52.917,-1.49502,1.58799,-0.0212233,0,0,0,1.588,-1.5,0.192
 20:58:52.927,-1.49507,1.58828,-0.0212309,0,0,0,1.593,-1.5,0.192
 20:58:52.938,-1.49455,1.58857,-0.0212383,0,0,0,1.593,-1.5,0.192
 20:58:52.947,-1.49462,1.58827,-0.0212307,0,0,0,1.593,-1.5,0.192
 20:58:52.957,-1.4941,1.58798,-0.0212231,0,0,0,1.593,-1.5,0.192
 20:58:52.968,-1.49417,1.58827,-0.0212306,0,0,0,1.593,-1.5,0.192
 20:58:52.977,-1.49422,1.58797,-0.0212226,0,0,0,1.593,-1.5,0.192
 20:58:52.987,-1.49428,1.58766,-0.0212147,0,0,0,1.593,-1.5,0.192
 20:58:52.998,-1.49375,1.58736,-0.0212069,0,0,0,1.593,-1.5,0.192
 20:58:53.007,-1.49438,1.58764,-0.0212142,0,0,0,1.588,-1.5,0.192
 20:58:53.018,-1.49387,1.58736,-0.0212068,0,0,0,1.593,-1.5,0.192
 20:58:53.027,-1.49394,1.58707,-0.0211994,0,0,0,1.588,-1.5,0.192
 20:58:53.038,-1.49401,1.5868,-0.0211922,0,0,0,1.588,-1.5,0.192
 20:58:53.047,-1.49408,1.58652,-0.021185,0,0,0,1.588,-1.5,0.192
 20:58:53.058,-1.49471,1.58623,-0.0211774,0,0,0,1.588,-1.5,0.192
 20:58:53.068,-1.49417,1.58593,-0.0211696,0,0,0,1.588,-1.5,0.192
 20:58:53.077,-1.49422,1.58622,-0.0211772,0,0,0,1.588,-1.5,0.192
 20:58:53.087,-1.49371,1.58595,-0.0211702,0,0,0,1.588,-1.5,0.192
 20:58:53.097,-1.49436,1.58626,-0.0211782,0,0,0,1.588,-1.5,0.192
 20:58:53.107,-1.49444,1.58601,-0.0211716,0,0,0,1.588,-1.5,0.192
 20:58:53.117,-1.4945,1.58574,-0.0211646,0,0,0,1.588,-1.5,0.192
 20:58:53.127,-1.49457,1.58605,-0.0211727,0,0,0,1.588,-1.5,0.192
 20:58:53.137,-1.49521,1.58636,-0.0211808,0,0,0,1.588,-1.5,0.192
 20:58:53.148,-1.49525,1.58665,-0.0211883,0,0,0,1.588,-1.5,0.192
 20:58:53.157,-1.49588,1.58637,-0.0211811,0,0,0,1.588,-1.5,0.192
 20:58:53.167,-1.49593,1.5861,-0.0211741,0,0,0,1.588,-1.5,0.192
 20:58:53.177,-1.4954,1.58641,-0.0211821,0,0,0,1.588,-1.5,0.192
 20:58:53.187,-1.49546,1.58671,-0.0211901,0,0,0,1.588,-1.5,0.192
 20:58:53.198,-1.49494,1.58702,-0.0211979,0,0,0,1.588,-1.5,0.192
 20:58:53.208,-1.495,1.58732,-0.0212057,0,0,0,1.588,-1.5,0.192
 20:58:53.217,-1.49448,1.58646,-0.0211833,0,0,0,1.588,-1.5,0.192
 20:58:53.228,-1.49454,1.58676,-0.0211913,0,0,0,1.588,-1.5,0.192
 20:58:53.237,-1.4952,1.5865,-0.0211845,0,0,0,1.588,-1.5,0.192
 20:58:53.248,-1.49468,1.58681,-0.0211924,0,0,0,1.588,-1.5,0.192
 20:58:53.257,-1.49476,1.58712,-0.0212007,0,0,0,1.588,-1.5,0.192
 20:58:53.267,-1.49483,1.58744,-0.0212089,0,0,0,1.588,-1.5,0.192
 20:58:53.277,-1.49489,1.58716,-0.0212015,0,0,0,1.588,-1.5,0.192
 20:58:53.287,-1.49495,1.58688,-0.0211942,0,0,0,1.588,-1.5,0.192
 20:58:53.297,-1.49501,1.58718,-0.0212021,0,0,0,1.588,-1.5,0.192
 20:58:53.307,-1.49506,1.58688,-0.0211944,0,0,0,1.588,-1.5,0.192
 20:58:53.318,-1.49452,1.58659,-0.0211867,0,0,0,1.588,-1.5,0.192
 20:58:53.328,-1.494,1.58687,-0.0211942,0,0,0,1.588,-1.5,0.192
 20:58:53.337,-1.49405,1.58716,-0.0212016,0,0,0,1.588,-1.5,0.192
 20:58:53.348,-1.49468,1.58744,-0.021209,0,0,0,1.588,-1.5,0.192
 20:58:53.357,-1.49473,1.58714,-0.0212012,0,0,0,1.588,-1.5,0.192
 20:58:53.367,-1.49479,1.58686,-0.0211939,0,0,0,1.588,-1.5,0.192
 20:58:53.378,-1.49485,1.58716,-0.0212017,0,0,0,1.588,-1.5,0.192
 20:58:53.387,-1.49491,1.58746,-0.0212095,0,0,0,1.588,-1.5,0.192
 20:58:53.398,-1.49497,1.58775,-0.0212172,0,0,0,1.588,-1.5,0.192
 20:58:53.408,-1.49503,1.58805,-0.0212248,0,0,0,1.588,-1.5,0.192
 20:58:53.417,-1.49565,1.58832,-0.0212319,0,0,0,1.588,-1.5,0.192
 20:58:53.427,-1.49567,1.588,-0.0212235,0,0,0,1.588,-1.5,0.192
 20:58:53.438,-1.49571,1.58827,-0.0212306,0,0,0,1.588,-1.5,0.192
 20:58:53.447,-1.49574,1.58854,-0.0212376,0,0,0,1.588,-1.5,0.192
 20:58:53.458,-1.49579,1.58882,-0.021245,0,0,0,1.593,-1.5,0.192
 20:58:53.468,-1.49641,1.58909,-0.0212519,0,0,0,1.593,-1.5,0.192
 20:58:53.478,-1.49586,1.58877,-0.0212437,0,0,0,1.593,-1.5,0.192
 20:58:53.488,-1.49647,1.58846,-0.0212356,0,0,0,1.593,-1.5,0.192
 20:58:53.498,-1.49594,1.58817,-0.021228,0,0,0,1.588,-1.5,0.192
 20:58:53.507,-1.49657,1.58846,-0.0212355,0,0,0,1.588,-1.5,0.192
 20:58:53.518,-1.49661,1.58874,-0.0212429,0,0,0,1.588,-1.5,0.192
 20:58:53.527,-1.49665,1.58902,-0.0212502,0,0,0,1.588,-1.5,0.192
 20:58:53.538,-1.49727,1.5893,-0.0212575,0,0,0,1.593,-1.5,0.192
 20:58:53.548,-1.49731,1.58958,-0.0212647,0,0,0,1.593,-1.5,0.192
 20:58:53.558,-1.49792,1.58985,-0.0212719,0,0,0,1.593,-1.5,0.192
 20:58:53.568,-1.49793,1.5901,-0.0212785,0,0,0,1.593,-1.5,0.192
 20:58:53.578,-1.49795,1.59036,-0.0212851,0,0,0,1.593,-1.5,0.192
 20:58:53.587,-1.4974,1.59004,-0.021277,0,0,0,1.593,-1.5,0.192
 20:58:53.598,-1.498,1.58972,-0.0212685,0,0,0,1.593,-1.5,0.192
 20:58:53.608,-1.49801,1.58998,-0.0212752,0,0,0,1.593,-1.5,0.192
 20:58:53.618,-1.4986,1.59081,-0.0212969,0,0,0,1.593,-1.505,0.192
 20:58:53.628,-1.49862,1.59107,-0.0213037,0,0,0,1.593,-1.505,0.192
 20:58:53.638,-1.49865,1.59133,-0.0213105,0,0,0,1.593,-1.505,0.192
 20:58:53.648,-1.49925,1.591,-0.021302,0,0,0,1.593,-1.505,0.192
 20:58:53.658,-1.49926,1.59126,-0.0213088,0,0,0,1.593,-1.505,0.192
 20:58:53.668,-1.49984,1.5915,-0.0213151,0,0,0,1.593,-1.505,0.192
 20:58:53.678,-1.49985,1.59176,-0.0213218,0,0,0,1.593,-1.505,0.192
 20:58:53.688,-1.49986,1.59143,-0.0213132,0,0,0,1.593,-1.505,0.192
 20:58:53.698,-1.49987,1.59169,-0.0213199,0,0,0,1.593,-1.505,0.192
 20:58:53.708,-1.49987,1.59135,-0.021311,0,0,0,1.593,-1.505,0.192
 20:58:53.718,-1.50045,1.5916,-0.0213177,0,0,0,1.593,-1.505,0.192
 20:58:53.728,-1.50046,1.59128,-0.0213092,0,0,0,1.593,-1.505,0.192
 20:58:53.738,-1.50102,1.59094,-0.0213004,0,0,0,1.593,-1.505,0.192
 20:58:53.748,-1.50102,1.5912,-0.0213072,0,0,0,1.593,-1.505,0.192
 20:58:53.758,-1.50105,1.59149,-0.0213148,0,0,0,1.593,-1.505,0.192
 20:58:53.769,-1.50047,1.59174,-0.0213214,0,0,0,1.593,-1.505,0.192
 20:58:53.778,-1.50046,1.59198,-0.0213276,0,0,0,1.593,-1.505,0.192
 20:58:53.788,-1.50048,1.59167,-0.0213194,0,0,0,1.593,-1.505,0.192
 20:58:53.798,-1.5005,1.59194,-0.0213265,0,0,0,1.593,-1.505,0.192
 20:58:53.808,-1.50052,1.59162,-0.0213183,0,0,0,1.593,-1.505,0.192
 20:58:53.819,-1.50112,1.59132,-0.0213102,0,0,0,1.593,-1.505,0.192
 20:58:53.828,-1.50169,1.59157,-0.0213169,0,0,0,1.593,-1.505,0.192
 20:58:53.838,-1.50167,1.59181,-0.0213231,0,0,0,1.593,-1.505,0.192
 20:58:53.848,-1.50166,1.59264,-0.0213448,0,0,0,1.593,-1.505,0.192
 20:58:53.858,-1.50164,1.59286,-0.0213508,0,0,0,1.593,-1.505,0.192
 20:58:53.868,-1.50163,1.5931,-0.0213571,0,0,0,1.599,-1.505,0.192
 20:58:53.879,-1.50104,1.59334,-0.0213633,0,0,0,1.599,-1.505,0.192
 20:58:53.889,-1.50104,1.593,-0.0213544,0,0,0,1.599,-1.505,0.192
 20:58:53.898,-1.50103,1.59265,-0.0213451,0,0,0,1.599,-1.505,0.192
 20:58:53.909,-1.50101,1.5923,-0.0213359,0,0,0,1.599,-1.505,0.192
 20:58:53.919,-1.50099,1.59253,-0.0213419,0,0,0,1.593,-1.505,0.192
 20:58:53.928,-1.50098,1.59275,-0.0213479,0,0,0,1.599,-1.505,0.192
 20:58:53.938,-1.50155,1.59242,-0.0213391,0,0,0,1.599,-1.505,0.192
 20:58:53.948,-1.50155,1.59209,-0.0213304,0,0,0,1.593,-1.505,0.192
 20:58:53.959,-1.50154,1.59176,-0.0213218,0,0,0,1.593,-1.505,0.192
 20:58:53.968,-1.50153,1.59143,-0.0213132,0,0,0,1.593,-1.505,0.192
 20:58:53.978,-1.50154,1.59055,-0.0212901,0,0,0,1.593,-1.505,0.192
 20:58:53.988,-1.50099,1.59026,-0.0212827,0,0,0,1.593,-1.505,0.192
 20:58:53.998,-1.50044,1.59056,-0.0212905,0,0,0,1.593,-1.505,0.192
 20:58:54.008,-1.50046,1.59027,-0.0212827,0,0,0,1.593,-1.505,0.192
 20:58:54.018,-1.50048,1.58997,-0.021275,0,0,0,1.593,-1.505,0.192
 20:58:54.029,-1.49992,1.59026,-0.0212825,0,0,0,1.593,-1.505,0.192
 20:58:54.039,-1.49937,1.59054,-0.0212899,0,0,0,1.593,-1.505,0.192
 20:58:54.049,-1.4994,1.5914,-0.0213123,0,0,0,1.593,-1.505,0.192
 20:58:54.058,-1.49887,1.59111,-0.0213047,0,0,0,1.593,-1.505,0.192
 20:58:54.068,-1.4989,1.59138,-0.0213119,0,0,0,1.593,-1.505,0.192
 20:58:54.079,-1.49894,1.59107,-0.0213039,0,0,0,1.593,-1.505,0.192
 20:58:54.089,-1.49897,1.59135,-0.0213111,0,0,0,1.593,-1.505,0.192
 20:58:54.099,-1.499,1.59162,-0.0213182,0,0,0,1.593,-1.505,0.192
 20:58:54.109,-1.49901,1.59301,-0.0213545,0,0,0,1.593,-1.505,0.192
 20:58:54.119,-1.499,1.59379,-0.021375,0,0,0,1.599,-1.505,0.192
 20:58:54.130,-1.49845,1.59404,-0.0213815,0,0,0,1.599,-1.505,0.192
 20:58:54.139,-1.4979,1.59369,-0.0213724,0,0,0,1.599,-1.505,0.192
 20:58:54.148,-1.49679,1.59221,-0.0213336,0,0,0,1.599,-1.505,0.192
 20:58:54.158,-1.49689,1.58904,-0.0212509,0,0,0,1.593,-1.505,0.192
 20:58:54.169,-1.49937,1.58766,-0.0212495,0,0,0,1.593,-1.505,0.192
 20:58:54.179,-1.50061,1.58796,-0.0212922,0,0,0,1.593,-1.505,0.192
 20:58:54.189,-1.5,1.58883,-0.0212988,0,0,0,1.593,-1.505,0.192
 20:58:54.199,-1.50001,1.58916,-0.0219013,0,0,0,1.593,-1.505,0.192
 20:58:54.208,-1.5,1.58948,-0.0225033,0,0,0,1.593,-1.505,0.187
 20:58:54.219,-1.49941,1.59036,-0.0224934,0,0,0,1.593,-1.505,0.187
 20:58:54.228,-1.49883,1.59067,-0.0224685,0,0,0,1.593,-1.505,0.187
 20:58:54.242,-1.49946,1.59039,-0.0224611,0,0,0,1.593,-1.505,0.187
 20:58:54.248,-1.49772,1.59068,-0.0224359,0,0,0,1.593,-1.505,0.187
 20:58:54.259,-1.49771,1.59153,-0.0224252,0,0,0,1.593,-1.505,0.187
 20:58:54.269,-1.49774,1.59181,-0.0224166,0,0,0,1.593,-1.505,0.187
 20:58:54.279,-1.49838,1.59209,-0.0224248,0,0,0,1.593,-1.505,0.187
 20:58:54.289,-1.49844,1.59238,-0.0224335,0,0,0,1.593,-1.505,0.187
 20:58:54.299,-1.49909,1.59324,-0.0224571,0,0,0,1.593,-1.505,0.187
 20:58:54.309,-1.50087,1.5941,-0.0231071,0,0,0,1.593,-1.505,0.187
 20:58:54.319,-1.50148,1.59493,-0.0231299,0,0,0,1.599,-1.505,0.187
 20:58:54.329,-1.50267,1.59577,-0.0231529,0,0,0,1.599,-1.505,0.187
 20:58:54.339,-1.50268,1.59604,-0.023144,0,0,0,1.599,-1.505,0.187
 20:58:54.349,-1.50269,1.59691,-0.0231348,0,0,0,1.599,-1.505,0.187
 20:58:54.359,-1.50269,1.59716,-0.0231252,0,0,0,1.599,-1.511,0.187
 20:58:54.369,-1.50089,1.59738,-0.023081,0,0,0,1.599,-1.505,0.187
 20:58:54.379,-1.50089,1.597,-0.023071,0,0,0,1.599,-1.505,0.187
 20:58:54.389,-1.5003,1.59718,-0.0230758,0,0,0,1.599,-1.505,0.187
 20:58:54.399,-1.50086,1.59736,-0.0230806,0,0,0,1.599,-1.505,0.187
 20:58:54.409,-1.50027,1.59696,-0.0230702,0,0,0,1.599,-1.505,0.187
 20:58:54.419,-1.50026,1.59657,-0.0230599,0,0,0,1.599,-1.505,0.187
 20:58:54.430,-1.49968,1.59676,-0.0230648,0,0,0,1.599,-1.505,0.187
 20:58:54.438,-1.49967,1.59694,-0.0230696,0,0,0,1.599,-1.505,0.187
 20:58:54.449,-1.49967,1.59655,-0.0230593,0,0,0,1.599,-1.505,0.187
 20:58:54.459,-1.4997,1.59619,-0.02305,0,0,0,1.599,-1.505,0.187
 20:58:54.468,-1.5003,1.59584,-0.0230407,0,0,0,1.599,-1.505,0.187
 20:58:54.479,-1.49975,1.59549,-0.0230315,0,0,0,1.599,-1.505,0.187
 20:58:54.489,-1.49979,1.59516,-0.0230228,0,0,0,1.599,-1.505,0.187
 20:58:54.499,-1.49983,1.59483,-0.0230142,0,0,0,1.599,-1.505,0.187
 20:58:54.509,-1.49986,1.59449,-0.0230053,0,0,0,1.599,-1.505,0.187
 20:58:54.519,-1.49929,1.59413,-0.0229961,0,0,0,1.599,-1.505,0.187
 20:58:54.529,-1.49931,1.59378,-0.0229869,0,0,0,1.599,-1.505,0.187
 20:58:54.539,-1.49932,1.59402,-0.022993,0,0,0,1.593,-1.505,0.187
 20:58:54.549,-1.49934,1.59424,-0.022999,0,0,0,1.593,-1.505,0.187
 20:58:54.559,-1.49935,1.59389,-0.0229898,0,0,0,1.593,-1.505,0.187
 20:58:54.569,-1.49937,1.59297,-0.0229656,0,0,0,1.593,-1.505,0.187
 20:58:54.580,-1.49939,1.59263,-0.0229568,0,0,0,1.593,-1.505,0.187
 20:58:54.589,-1.49939,1.59228,-0.0229476,0,0,0,1.593,-1.505,0.187
 20:58:54.599,-1.49884,1.59197,-0.0229394,0,0,0,1.593,-1.505,0.187
 20:58:54.610,-1.49884,1.5922,-0.0229455,0,0,0,1.593,-1.5,0.187
 20:58:54.619,-1.49885,1.59185,-0.0229364,0,0,0,1.593,-1.5,0.187
 20:58:54.630,-1.50002,1.59211,-0.022943,0,0,0,1.593,-1.5,0.187
 20:58:54.639,-1.50005,1.59121,-0.0229197,0,0,0,1.593,-1.5,0.187
 20:58:54.649,-1.50063,1.59089,-0.0229113,0,0,0,1.593,-1.505,0.187
 20:58:54.659,-1.50062,1.59114,-0.0229177,0,0,0,1.593,-1.505,0.187
 20:58:54.670,-1.50005,1.59082,-0.0229093,0,0,0,1.593,-1.505,0.187
 20:58:54.679,-1.50006,1.5905,-0.022901,0,0,0,1.593,-1.505,0.187
 20:58:54.689,-1.49947,1.59017,-0.0228924,0,0,0,1.593,-1.505,0.187
 20:58:54.700,-1.49947,1.58985,-0.0228839,0,0,0,1.593,-1.505,0.187
 20:58:54.710,-1.49891,1.58896,-0.0228608,0,0,0,1.593,-1.505,0.187
 20:58:54.720,-1.49893,1.58867,-0.022853,0,0,0,1.588,-1.505,0.187
 20:58:54.730,-1.49893,1.58836,-0.0228449,0,0,0,1.588,-1.505,0.187
 20:58:54.740,-1.49836,1.58805,-0.0228368,0,0,0,1.588,-1.505,0.187
 20:58:54.750,-1.49895,1.58774,-0.0228289,0,0,0,1.588,-1.505,0.187
 20:58:54.759,-1.49897,1.58746,-0.0228214,0,0,0,1.588,-1.505,0.187
 20:58:54.770,-1.49957,1.58775,-0.0228291,0,0,0,1.588,-1.505,0.187
 20:58:54.780,-1.49902,1.58806,-0.0228372,0,0,0,1.588,-1.505,0.187
 20:58:54.789,-1.49905,1.58837,-0.0228451,0,0,0,1.588,-1.505,0.187
 20:58:54.799,-1.49852,1.58811,-0.0228383,0,0,0,1.588,-1.505,0.187
 20:58:54.809,-1.49798,1.58899,-0.0228614,0,0,0,1.588,-1.505,0.187
 20:58:54.820,-1.49802,1.58928,-0.0228691,0,0,0,1.588,-1.505,0.187
 20:58:54.829,-1.49749,1.589,-0.0228617,0,0,0,1.588,-1.505,0.187
 20:58:54.839,-1.4981,1.58985,-0.0228841,0,0,0,1.588,-1.505,0.187
 20:58:54.850,-1.49754,1.59011,-0.0228907,0,0,0,1.588,-1.5,0.187
 20:58:54.860,-1.49757,1.59038,-0.0228977,0,0,0,1.593,-1.5,0.187
 20:58:54.870,-1.49701,1.59005,-0.0228891,0,0,0,1.593,-1.5,0.187
 20:58:54.880,-1.49704,1.58972,-0.0228807,0,0,0,1.593,-1.5,0.187
 20:58:54.889,-1.49648,1.5894,-0.0228723,0,0,0,1.588,-1.5,0.187
 20:58:54.899,-1.49651,1.58966,-0.022879,0,0,0,1.588,-1.5,0.187
 20:58:54.909,-1.49654,1.58992,-0.0228857,0,0,0,1.588,-1.5,0.187
 20:58:54.919,-1.49601,1.58961,-0.0228777,0,0,0,1.588,-1.5,0.187
 20:58:54.929,-1.49663,1.58873,-0.0228547,0,0,0,1.588,-1.5,0.187
 20:58:54.940,-1.4961,1.58786,-0.0228319,0,0,0,1.588,-1.5,0.187
 20:58:54.950,-1.49673,1.58757,-0.0228244,0,0,0,1.588,-1.5,0.187
 20:58:54.960,-1.49677,1.58729,-0.022817,0,0,0,1.588,-1.5,0.187
 20:58:54.970,-1.49682,1.58702,-0.0228101,0,0,0,1.588,-1.5,0.187
 20:58:54.980,-1.49688,1.58676,-0.0228032,0,0,0,1.588,-1.5,0.187
 20:58:54.990,-1.49636,1.5865,-0.0227964,0,0,0,1.588,-1.5,0.187
 20:58:55.000,-1.49698,1.58623,-0.0227893,0,0,0,1.588,-1.5,0.187
 20:58:55.009,-1.49641,1.58592,-0.0227814,0,0,0,1.588,-1.5,0.187
 20:58:55.019,-1.49644,1.58564,-0.022774,0,0,0,1.588,-1.5,0.187
 20:58:55.030,-1.49647,1.58536,-0.0227667,0,0,0,1.588,-1.5,0.187
 20:58:55.040,-1.49593,1.58508,-0.0227595,0,0,0,1.588,-1.5,0.187
 20:58:55.050,-1.49596,1.58481,-0.0227523,0,0,0,1.588,-1.5,0.187
 20:58:55.060,-1.49543,1.58455,-0.0227456,0,0,0,1.588,-1.5,0.187
 20:58:55.070,-1.49549,1.58372,-0.0227239,0,0,0,1.582,-1.5,0.187
 20:58:55.080,-1.49556,1.58349,-0.022718,0,0,0,1.582,-1.5,0.187
 20:58:55.089,-1.49561,1.58383,-0.0227267,0,0,0,1.582,-1.5,0.187
 20:58:55.099,-1.49566,1.58416,-0.0227353,0,0,0,1.582,-1.5,0.187
 20:58:55.109,-1.49572,1.58391,-0.0227288,0,0,0,1.582,-1.5,0.187
 20:58:55.119,-1.49575,1.58422,-0.022737,0,0,0,1.582,-1.5,0.187
 20:58:55.130,-1.49579,1.58453,-0.0227451,0,0,0,1.582,-1.5,0.187
 20:58:55.139,-1.49583,1.58484,-0.0227531,0,0,0,1.582,-1.5,0.187
 20:58:55.150,-1.49528,1.58457,-0.022746,0,0,0,1.582,-1.5,0.187
 20:58:55.160,-1.49533,1.58487,-0.022754,0,0,0,1.588,-1.5,0.187
 20:58:55.170,-1.49537,1.5846,-0.0227469,0,0,0,1.588,-1.5,0.187
 20:58:55.180,-1.49541,1.58433,-0.0227399,0,0,0,1.582,-1.5,0.187
 20:58:55.189,-1.49545,1.58349,-0.0227179,0,0,0,1.582,-1.5,0.187
 20:58:55.200,-1.49552,1.58326,-0.0227119,0,0,0,1.582,-1.5,0.187
 20:58:55.210,-1.49554,1.58414,-0.0227349,0,0,0,1.582,-1.5,0.187
 20:58:55.220,-1.49558,1.58445,-0.022743,0,0,0,1.582,-1.5,0.187
 20:58:55.230,-1.49624,1.58423,-0.0227373,0,0,0,1.582,-1.5,0.187
 20:58:55.240,-1.4957,1.58397,-0.0227303,0,0,0,1.582,-1.5,0.187
 20:58:55.250,-1.49633,1.58256,-0.0226937,0,0,0,1.582,-1.5,0.187
 20:58:55.260,-1.49637,1.58175,-0.0226725,0,0,0,1.582,-1.5,0.187
 20:58:55.270,-1.49699,1.58153,-0.0226666,0,0,0,1.582,-1.5,0.187
 20:58:55.280,-1.49705,1.58074,-0.0226461,0,0,0,1.582,-1.5,0.187
 20:58:55.290,-1.49534,1.58051,-0.0226401,0,0,0,1.582,-1.5,0.187
 20:58:55.300,-1.49765,1.58198,-0.0226784,0,0,0,1.582,-1.5,0.187
 20:58:55.310,-1.49718,1.57951,-0.0226138,0,0,0,1.582,-1.5,0.187
 20:58:55.320,-1.49673,1.57707,-0.0225503,0,0,0,1.577,-1.5,0.187
 20:58:55.330,-1.49668,1.58024,-0.0226331,0,0,0,1.577,-1.5,0.187
 20:58:55.339,-1.49494,1.58112,-0.022656,0,0,0,1.582,-1.5,0.187
 20:58:55.350,-1.49624,1.57924,-0.0226069,0,0,0,1.582,-1.5,0.187
 20:58:55.360,-1.49516,1.57791,-0.0225723,0,0,0,1.577,-1.5,0.187
 20:58:55.370,-1.49576,1.57885,-0.0225966,0,0,0,1.577,-1.5,0.187
 20:58:55.380,-1.49464,1.57979,-0.0226212,0,0,0,1.582,-1.5,0.187
 20:58:55.390,-1.49583,1.58013,-0.02263,0,0,0,1.582,-1.5,0.187
 20:58:55.401,-1.49535,1.57823,-0.0225805,0,0,0,1.582,-1.5,0.187
 20:58:55.411,-1.49481,1.57802,-0.0225751,0,0,0,1.577,-1.5,0.187
 20:58:55.421,-1.49481,1.58007,-0.0226285,0,0,0,1.577,-1.5,0.187
 20:58:55.430,-1.49429,1.57986,-0.0226231,0,0,0,1.582,-1.5,0.187
 20:58:55.441,-1.49498,1.57797,-0.0225736,0,0,0,1.582,-1.5,0.187
 20:58:55.451,-1.49448,1.57664,-0.022539,0,0,0,1.577,-1.5,0.187
 20:58:55.460,-1.49508,1.57757,-0.0225632,0,0,0,1.577,-1.5,0.187
 20:58:55.470,-1.49509,1.57849,-0.0225872,0,0,0,1.577,-1.5,0.187
 20:58:55.480,-1.49572,1.57772,-0.0225671,0,0,0,1.577,-1.5,0.187
 20:58:55.490,-1.49581,1.57583,-0.0225178,0,0,0,1.577,-1.5,0.187
 20:58:55.500,-1.49528,1.57682,-0.0225436,0,0,0,1.577,-1.5,0.187
 20:58:55.510,-1.49472,1.57717,-0.0225528,0,0,0,1.577,-1.5,0.187
 20:58:55.520,-1.4959,1.57638,-0.0225323,0,0,0,1.577,-1.5,0.187
 20:58:55.530,-1.49482,1.57566,-0.0225135,0,0,0,1.577,-1.5,0.187
 20:58:55.540,-1.49605,1.57609,-0.0225247,0,0,0,1.577,-1.5,0.187
 20:58:55.550,-1.49379,1.5765,-0.0225353,0,0,0,1.577,-1.5,0.187
 20:58:55.560,-1.495,1.57746,-0.0225605,0,0,0,1.577,-1.5,0.187
 20:58:55.571,-1.49451,1.57616,-0.0225264,0,0,0,1.577,-1.5,0.187
 20:58:55.581,-1.49516,1.57599,-0.0225219,0,0,0,1.577,-1.5,0.187
 20:58:55.590,-1.49461,1.57636,-0.0225318,0,0,0,1.577,-1.5,0.187
 20:58:55.600,-1.49464,1.57674,-0.0225415,0,0,0,1.577,-1.5,0.187
 20:58:55.610,-1.49528,1.57598,-0.0225219,0,0,0,1.577,-1.5,0.187
 20:58:55.620,-1.4942,1.57468,-0.0224878,0,0,0,1.577,-1.5,0.187
 20:58:55.630,-1.49484,1.57452,-0.0224837,0,0,0,1.571,-1.5,0.187
 20:58:55.640,-1.49373,1.57493,-0.0224943,0,0,0,1.577,-1.5,0.187
 20:58:55.650,-1.49438,1.57477,-0.0224902,0,0,0,1.577,-1.5,0.187
 20:58:55.661,-1.4939,1.57349,-0.0224568,0,0,0,1.571,-1.5,0.187
 20:58:55.670,-1.49455,1.57335,-0.0224531,0,0,0,1.571,-1.5,0.187
 20:58:55.680,-1.49403,1.57378,-0.0224645,0,0,0,1.571,-1.5,0.187
 20:58:55.691,-1.49412,1.57423,-0.0224761,0,0,0,1.571,-1.5,0.187
 20:58:55.700,-1.49419,1.57408,-0.0224722,0,0,0,1.571,-1.5,0.187
 20:58:55.710,-1.49369,1.57337,-0.0224537,0,0,0,1.571,-1.5,0.187
 20:58:55.720,-1.49378,1.57324,-0.0224504,0,0,0,1.571,-1.5,0.187
 20:58:55.730,-1.49327,1.5731,-0.0224467,0,0,0,1.571,-1.5,0.187
 20:58:55.740,-1.49339,1.57301,-0.0224443,0,0,0,1.571,-1.5,0.187
 20:58:55.750,-1.49352,1.57234,-0.0224269,0,0,0,1.571,-1.5,0.187
 20:58:55.760,-1.4936,1.5728,-0.0224389,0,0,0,1.571,-1.5,0.187
 20:58:55.771,-1.49369,1.57326,-0.0224509,0,0,0,1.571,-1.5,0.187
 20:58:55.781,-1.49089,1.57371,-0.0224626,0,0,0,1.571,-1.5,0.187
 20:58:55.791,-1.49216,1.57358,-0.0224593,0,0,0,1.571,-1.494,0.187
 20:58:55.800,-1.49344,1.57174,-0.0224111,0,0,0,1.571,-1.494,0.187
 20:58:55.811,-1.49238,1.57222,-0.0224238,0,0,0,1.571,-1.5,0.187
 20:58:55.820,-1.49423,1.57386,-0.0224664,0,0,0,1.571,-1.5,0.187
 20:58:55.830,-1.49085,1.57199,-0.0224178,0,0,0,1.571,-1.5,0.187
 20:58:55.841,-1.49324,1.57185,-0.0224141,0,0,0,1.571,-1.494,0.187
 20:58:55.851,-1.49277,1.57291,-0.0224418,0,0,0,1.571,-1.494,0.187
 20:58:55.861,-1.49172,1.57338,-0.0224541,0,0,0,1.571,-1.5,0.187
 20:58:55.871,-1.49356,1.57268,-0.0224357,0,0,0,1.571,-1.494,0.187
 20:58:55.881,-1.49192,1.57256,-0.0224326,0,0,0,1.571,-1.494,0.187
 20:58:55.891,-1.49376,1.5736,-0.0224596,0,0,0,1.571,-1.494,0.187
 20:58:55.901,-1.49153,1.57347,-0.0224563,0,0,0,1.571,-1.494,0.187
 20:58:55.911,-1.49332,1.57329,-0.0224518,0,0,0,1.571,-1.494,0.187
 20:58:55.921,-1.49227,1.57203,-0.0224188,0,0,0,1.571,-1.494,0.187
 20:58:55.931,-1.49294,1.57248,-0.0224305,0,0,0,1.571,-1.494,0.187
 20:58:55.941,-1.49243,1.5729,-0.0224416,0,0,0,1.571,-1.494,0.187
 20:58:55.951,-1.49193,1.57277,-0.0224381,0,0,0,1.571,-1.494,0.187
 20:58:55.961,-1.49377,1.57265,-0.0224349,0,0,0,1.571,-1.494,0.187
 20:58:55.971,-1.49097,1.57137,-0.0224017,0,0,0,1.571,-1.494,0.187
 20:58:55.982,-1.49336,1.57239,-0.0224282,0,0,0,1.571,-1.494,0.187
 20:58:55.991,-1.49111,1.57166,-0.0224093,0,0,0,1.571,-1.494,0.187
 20:58:56.001,-1.49291,1.57208,-0.0224202,0,0,0,1.571,-1.494,0.187
 20:58:56.011,-1.49185,1.57081,-0.0223872,0,0,0,1.571,-1.494,0.187
 20:58:56.020,-1.4925,1.57068,-0.0223838,0,0,0,1.571,-1.494,0.187
 20:58:56.031,-1.49258,1.57115,-0.0223958,0,0,0,1.571,-1.494,0.187
 20:58:56.041,-1.49267,1.57103,-0.0223927,0,0,0,1.571,-1.494,0.187
 20:58:56.051,-1.49333,1.57033,-0.0223746,0,0,0,1.571,-1.494,0.187
 20:58:56.061,-1.49284,1.57023,-0.0223721,0,0,0,1.571,-1.494,0.187
 20:58:56.071,-1.4935,1.57128,-0.0223993,0,0,0,1.571,-1.494,0.187
 20:58:56.081,-1.49242,1.57173,-0.0224112,0,0,0,1.571,-1.494,0.187
 20:58:56.091,-1.49306,1.57159,-0.0224075,0,0,0,1.571,-1.494,0.187
 20:58:56.101,-1.492,1.57091,-0.0223896,0,0,0,1.571,-1.494,0.187
 20:58:56.111,-1.49209,1.57079,-0.0223866,0,0,0,1.571,-1.494,0.187
 20:58:56.122,-1.49217,1.57066,-0.0223831,0,0,0,1.571,-1.494,0.187
 20:58:56.131,-1.49224,1.5711,-0.0223948,0,0,0,1.571,-1.494,0.187
 20:58:56.141,-1.4929,1.57099,-0.0223917,0,0,0,1.571,-1.494,0.187
 20:58:56.151,-1.49297,1.57085,-0.0223882,0,0,0,1.571,-1.494,0.187
 20:58:56.162,-1.49361,1.5713,-0.0223998,0,0,0,1.571,-1.494,0.187
 20:58:56.171,-1.4931,1.57118,-0.0223966,0,0,0,1.571,-1.5,0.187
 20:58:56.180,-1.49377,1.57107,-0.0223939,0,0,0,1.571,-1.5,0.187
 20:58:56.191,-1.49327,1.57038,-0.0223758,0,0,0,1.571,-1.5,0.187
 20:58:56.201,-1.49333,1.57082,-0.0223875,0,0,0,1.571,-1.5,0.187
 20:58:56.212,-1.49284,1.57072,-0.0223848,0,0,0,1.571,-1.5,0.187
 20:58:56.221,-1.49235,1.57119,-0.0223969,0,0,0,1.571,-1.494,0.187
 20:58:56.231,-1.49187,1.5705,-0.0223791,0,0,0,1.571,-1.494,0.187
 20:58:56.241,-1.49137,1.57037,-0.0223757,0,0,0,1.571,-1.494,0.187
 20:58:56.251,-1.49145,1.57082,-0.0223874,0,0,0,1.571,-1.494,0.187
 20:58:56.261,-1.49095,1.57069,-0.022384,0,0,0,1.571,-1.494,0.187
 20:58:56.271,-1.49105,1.57,-0.022366,0,0,0,1.571,-1.494,0.187
 20:58:56.282,-1.49059,1.56933,-0.0223486,0,0,0,1.571,-1.494,0.187
 20:58:56.291,-1.49068,1.56921,-0.0223455,0,0,0,1.571,-1.494,0.187
 20:58:56.302,-1.49076,1.56852,-0.0223275,0,0,0,1.571,-1.494,0.187
 20:58:56.311,-1.49087,1.56843,-0.0223251,0,0,0,1.571,-1.494,0.187
 20:58:56.321,-1.49098,1.56835,-0.0223231,0,0,0,1.571,-1.494,0.187
 20:58:56.331,-1.49107,1.56824,-0.0223203,0,0,0,1.571,-1.494,0.187
 20:58:56.342,-1.49116,1.56815,-0.0223179,0,0,0,1.571,-1.494,0.187
 20:58:56.351,-1.49126,1.56806,-0.0223156,0,0,0,1.571,-1.494,0.187
 20:58:56.362,-1.49136,1.56797,-0.0223133,0,0,0,1.571,-1.494,0.187
 20:58:56.371,-1.49088,1.56789,-0.022311,0,0,0,1.571,-1.494,0.187
 20:58:56.381,-1.49098,1.56838,-0.0223238,0,0,0,1.571,-1.494,0.187
 20:58:56.391,-1.49106,1.56827,-0.022321,0,0,0,1.571,-1.494,0.187
 20:58:56.401,-1.49114,1.56759,-0.0223032,0,0,0,1.571,-1.494,0.187
 20:58:56.411,-1.49123,1.56691,-0.0222856,0,0,0,1.571,-1.494,0.187
 20:58:56.421,-1.49131,1.56682,-0.0222832,0,0,0,1.566,-1.494,0.187
 20:58:56.431,-1.49139,1.56615,-0.0222658,0,0,0,1.566,-1.494,0.187
 20:58:56.441,-1.49091,1.5655,-0.0222489,0,0,0,1.566,-1.494,0.187
 20:58:56.451,-1.49101,1.56544,-0.0222473,0,0,0,1.566,-1.494,0.187
 20:58:56.462,-1.49109,1.56536,-0.0222453,0,0,0,1.566,-1.494,0.187
 20:58:56.472,-1.4906,1.56528,-0.0222433,0,0,0,1.566,-1.494,0.187
 20:58:56.481,-1.49069,1.56521,-0.0222413,0,0,0,1.566,-1.494,0.187
 20:58:56.492,-1.4902,1.56513,-0.0222393,0,0,0,1.566,-1.494,0.187
 20:58:56.502,-1.49031,1.56507,-0.0222377,0,0,0,1.566,-1.494,0.187
 20:58:56.511,-1.4904,1.56557,-0.0222508,0,0,0,1.566,-1.494,0.187
 20:58:56.521,-1.49049,1.56607,-0.0222637,0,0,0,1.566,-1.494,0.187
 20:58:56.531,-1.49059,1.566,-0.0222619,0,0,0,1.566,-1.494,0.187
 20:58:56.542,-1.49069,1.56593,-0.0222602,0,0,0,1.566,-1.494,0.187
 20:58:56.551,-1.49022,1.56529,-0.0222434,0,0,0,1.566,-1.494,0.187
 20:58:56.562,-1.49089,1.56521,-0.0222414,0,0,0,1.566,-1.494,0.187
 20:58:56.572,-1.49099,1.56515,-0.0222399,0,0,0,1.566,-1.494,0.187
 20:58:56.581,-1.49109,1.56509,-0.0222383,0,0,0,1.566,-1.494,0.187
 20:58:56.592,-1.49175,1.56502,-0.0222364,0,0,0,1.566,-1.494,0.187
 20:58:56.602,-1.49241,1.56554,-0.0222499,0,0,0,1.566,-1.494,0.187
 20:58:56.612,-1.4925,1.56547,-0.0222482,0,0,0,1.566,-1.494,0.187
 20:58:56.621,-1.4926,1.56543,-0.022247,0,0,0,1.566,-1.494,0.187
 20:58:56.631,-1.4927,1.56538,-0.0222458,0,0,0,1.566,-1.5,0.187
 20:58:56.642,-1.49222,1.56533,-0.0222446,0,0,0,1.566,-1.494,0.187
 20:58:56.652,-1.49288,1.56527,-0.022243,0,0,0,1.566,-1.494,0.187
 20:58:56.662,-1.49238,1.56521,-0.0222414,0,0,0,1.566,-1.494,0.187
 20:58:56.671,-1.49188,1.56456,-0.0222244,0,0,0,1.566,-1.494,0.187
 20:58:56.681,-1.49139,1.5645,-0.022223,0,0,0,1.566,-1.494,0.187
 20:58:56.692,-1.49091,1.56445,-0.0222216,0,0,0,1.566,-1.494,0.187
 20:58:56.702,-1.49157,1.56438,-0.0222198,0,0,0,1.566,-1.494,0.187
 20:58:56.711,-1.49109,1.56491,-0.0222335,0,0,0,1.566,-1.494,0.187
 20:58:56.721,-1.49117,1.56311,-0.0221866,0,0,0,1.566,-1.494,0.187
 20:58:56.731,-1.49124,1.56246,-0.0221698,0,0,0,1.566,-1.494,0.187
 20:58:56.742,-1.49134,1.56416,-0.022214,0,0,0,1.566,-1.494,0.187
 20:58:56.752,-1.49085,1.56353,-0.0221977,0,0,0,1.566,-1.494,0.187
 20:58:56.762,-1.49035,1.56288,-0.0221807,0,0,0,1.566,-1.494,0.187
 20:58:56.772,-1.49044,1.5634,-0.0221944,0,0,0,1.566,-1.494,0.187
 20:58:56.782,-1.48942,1.56339,-0.0221941,0,0,0,1.566,-1.494,0.187
 20:58:56.792,-1.49013,1.56337,-0.0221934,0,0,0,1.566,-1.494,0.187
 20:58:56.802,-1.48966,1.5639,-0.0222073,0,0,0,1.566,-1.494,0.187
 20:58:56.812,-1.48977,1.56386,-0.0222061,0,0,0,1.566,-1.494,0.187
 20:58:56.821,-1.48932,1.56382,-0.0222053,0,0,0,1.566,-1.494,0.187
 20:58:56.832,-1.48884,1.56434,-0.0222187,0,0,0,1.566,-1.494,0.187
 20:58:56.842,-1.48954,1.56486,-0.0222323,0,0,0,1.566,-1.494,0.187
 20:58:56.852,-1.4885,1.56539,-0.0222459,0,0,0,1.566,-1.494,0.187
 20:58:56.862,-1.48861,1.56531,-0.0222438,0,0,0,1.566,-1.494,0.187
 20:58:56.872,-1.48814,1.56465,-0.0222269,0,0,0,1.566,-1.494,0.187
 20:58:56.882,-1.48881,1.56457,-0.0222246,0,0,0,1.566,-1.494,0.187
 20:58:56.892,-1.48836,1.56451,-0.0222232,0,0,0,1.566,-1.494,0.187
 20:58:56.902,-1.48848,1.56504,-0.0222369,0,0,0,1.566,-1.494,0.187
 20:58:56.912,-1.48804,1.56557,-0.0222507,0,0,0,1.566,-1.494,0.187
 20:58:56.922,-1.48761,1.56553,-0.0222495,0,0,0,1.566,-1.494,0.187
 20:58:56.932,-1.48776,1.5649,-0.0222333,0,0,0,1.566,-1.494,0.187
 20:58:56.942,-1.48791,1.56486,-0.0222322,0,0,0,1.566,-1.494,0.187
 20:58:56.952,-1.48807,1.56483,-0.0222315,0,0,0,1.566,-1.494,0.187
 20:58:56.962,-1.48705,1.56479,-0.0222305,0,0,0,1.566,-1.494,0.187
 20:58:56.972,-1.48719,1.56474,-0.022229,0,0,0,1.566,-1.494,0.187
 20:58:56.982,-1.48734,1.5647,-0.022228,0,0,0,1.566,-1.494,0.187
 20:58:56.992,-1.4875,1.56466,-0.022227,0,0,0,1.566,-1.494,0.187
 20:58:57.002,-1.48765,1.56404,-0.022211,0,0,0,1.566,-1.494,0.187
 20:58:57.012,-1.48722,1.56343,-0.0221951,0,0,0,1.566,-1.494,0.187
 20:58:57.022,-1.48737,1.5634,-0.0221944,0,0,0,1.566,-1.489,0.187
 20:58:57.032,-1.48636,1.5628,-0.0221787,0,0,0,1.566,-1.489,0.187
 20:58:57.042,-1.48652,1.56278,-0.0221782,0,0,0,1.566,-1.489,0.187
 20:58:57.052,-1.48667,1.56274,-0.0221773,0,0,0,1.566,-1.489,0.187
 20:58:57.062,-1.48623,1.56271,-0.0221764,0,0,0,1.566,-1.489,0.187
 20:58:57.072,-1.48638,1.5621,-0.0221605,0,0,0,1.566,-1.489,0.187
 20:58:57.082,-1.48595,1.56207,-0.0221597,0,0,0,1.566,-1.489,0.187
 20:58:57.092,-1.4861,1.56261,-0.022174,0,0,0,1.566,-1.489,0.187
 20:58:57.102,-1.48567,1.56258,-0.0221731,0,0,0,1.566,-1.489,0.187
 20:58:57.112,-1.48581,1.56253,-0.0221718,0,0,0,1.566,-1.489,0.187
 20:58:57.122,-1.48596,1.5625,-0.0221709,0,0,0,1.566,-1.489,0.187
 20:58:57.132,-1.48612,1.56306,-0.0221854,0,0,0,1.566,-1.489,0.187
 20:58:57.142,-1.48629,1.56303,-0.0221849,0,0,0,1.566,-1.489,0.187
 20:58:57.152,-1.48643,1.56357,-0.0221988,0,0,0,1.566,-1.489,0.187
 20:58:57.162,-1.48715,1.56411,-0.0222127,0,0,0,1.566,-1.489,0.187
 20:58:57.172,-1.48671,1.56348,-0.0221964,0,0,0,1.566,-1.489,0.187
 20:58:57.183,-1.48745,1.56345,-0.0221957,0,0,0,1.566,-1.489,0.187
 20:58:57.192,-1.48702,1.56285,-0.02218,0,0,0,1.566,-1.494,0.187
 20:58:57.202,-1.48716,1.56281,-0.0221791,0,0,0,1.566,-1.494,0.187
 20:58:57.212,-1.48786,1.56276,-0.0221777,0,0,0,1.566,-1.494,0.187
 20:58:57.222,-1.48741,1.56272,-0.0221768,0,0,0,1.566,-1.494,0.187
 20:58:57.233,-1.48811,1.56267,-0.0221755,0,0,0,1.566,-1.494,0.187
 20:58:57.243,-1.48824,1.56264,-0.0221746,0,0,0,1.566,-1.494,0.187
 20:58:57.253,-1.48894,1.56318,-0.0221887,0,0,0,1.566,-1.494,0.187
 20:58:57.263,-1.48848,1.56314,-0.0221876,0,0,0,1.566,-1.494,0.187
 20:58:57.272,-1.48859,1.56309,-0.0221862,0,0,0,1.566,-1.494,0.187
 20:58:57.283,-1.48812,1.56303,-0.0221848,0,0,0,1.566,-1.494,0.187
 20:58:57.293,-1.48825,1.56357,-0.0221988,0,0,0,1.566,-1.494,0.187
 20:58:57.303,-1.48836,1.56351,-0.0221972,0,0,0,1.566,-1.494,0.187
 20:58:57.313,-1.48791,1.56289,-0.0221811,0,0,0,1.566,-1.494,0.187
 20:58:57.322,-1.48746,1.56285,-0.0221801,0,0,0,1.566,-1.494,0.187
 20:58:57.332,-1.48702,1.56224,-0.0221642,0,0,0,1.566,-1.494,0.187
 20:58:57.342,-1.48716,1.56221,-0.0221634,0,0,0,1.566,-1.489,0.187
 20:58:57.353,-1.4873,1.56218,-0.0221626,0,0,0,1.566,-1.489,0.187
 20:58:57.363,-1.48686,1.56215,-0.0221619,0,0,0,1.566,-1.489,0.187
 20:58:57.373,-1.48644,1.56271,-0.0221765,0,0,0,1.566,-1.489,0.187
 20:58:57.382,-1.48602,1.56269,-0.022176,0,0,0,1.566,-1.489,0.187
 20:58:57.392,-1.48617,1.56208,-0.0221601,0,0,0,1.566,-1.489,0.187
 20:58:57.402,-1.48575,1.56207,-0.0221598,0,0,0,1.566,-1.489,0.187
 20:58:57.412,-1.48534,1.56206,-0.0221594,0,0,0,1.566,-1.489,0.187
 20:58:57.423,-1.48551,1.56204,-0.0221591,0,0,0,1.566,-1.489,0.187
 20:58:57.433,-1.48568,1.56203,-0.0221588,0,0,0,1.566,-1.489,0.187
 20:58:57.443,-1.48585,1.56202,-0.0221584,0,0,0,1.566,-1.489,0.187
 20:58:57.453,-1.48544,1.562,-0.0221581,0,0,0,1.566,-1.489,0.187
 20:58:57.463,-1.48561,1.56257,-0.0221728,0,0,0,1.566,-1.489,0.187
 20:58:57.473,-1.48577,1.56313,-0.0221873,0,0,0,1.566,-1.489,0.187
 20:58:57.483,-1.48593,1.56309,-0.0221863,0,0,0,1.566,-1.489,0.187
 20:58:57.493,-1.48611,1.5625,-0.0221711,0,0,0,1.566,-1.489,0.187
 20:58:57.503,-1.48627,1.56249,-0.0221706,0,0,0,1.566,-1.489,0.187
 20:58:57.513,-1.48643,1.56247,-0.0221702,0,0,0,1.566,-1.489,0.187
 20:58:57.523,-1.48661,1.56305,-0.0221851,0,0,0,1.566,-1.489,0.187
 20:58:57.533,-1.48678,1.56304,-0.022185,0,0,0,1.566,-1.489,0.187
 20:58:57.542,-1.48634,1.56358,-0.0221989,0,0,0,1.566,-1.489,0.187
 20:58:57.553,-1.48591,1.56411,-0.0222128,0,0,0,1.566,-1.489,0.187
 20:58:57.563,-1.48606,1.56406,-0.0222115,0,0,0,1.566,-1.489,0.187
 20:58:57.573,-1.48621,1.56401,-0.0222102,0,0,0,1.566,-1.489,0.187
 20:58:57.583,-1.48637,1.56398,-0.0222094,0,0,0,1.566,-1.489,0.187
 20:58:57.593,-1.48655,1.56396,-0.022209,0,0,0,1.566,-1.489,0.187
 20:58:57.603,-1.48613,1.56393,-0.0222081,0,0,0,1.566,-1.489,0.187
 20:58:57.613,-1.48514,1.5639,-0.0222073,0,0,0,1.566,-1.489,0.187
 20:58:57.623,-1.48529,1.56385,-0.0222061,0,0,0,1.566,-1.489,0.187
 20:58:57.633,-1.48489,1.56382,-0.0222053,0,0,0,1.566,-1.489,0.187
 20:58:57.642,-1.48506,1.56379,-0.0222045,0,0,0,1.566,-1.489,0.187
 20:58:57.652,-1.48466,1.56376,-0.0222037,0,0,0,1.566,-1.489,0.187
 20:58:57.663,-1.48482,1.56372,-0.0222025,0,0,0,1.566,-1.489,0.187
 20:58:57.673,-1.48439,1.56366,-0.0222009,0,0,0,1.566,-1.489,0.187
 20:58:57.683,-1.48456,1.56361,-0.0221998,0,0,0,1.566,-1.489,0.187
 20:58:57.693,-1.48472,1.56414,-0.0222136,0,0,0,1.566,-1.489,0.187
 20:58:57.703,-1.48431,1.56409,-0.0222123,0,0,0,1.566,-1.489,0.187
 20:58:57.713,-1.48506,1.56464,-0.0222264,0,0,0,1.566,-1.489,0.187
 20:58:57.723,-1.48467,1.56462,-0.0222258,0,0,0,1.566,-1.489,0.187
 20:58:57.733,-1.48484,1.56456,-0.0222244,0,0,0,1.566,-1.489,0.187
 20:58:57.743,-1.48498,1.56507,-0.0222376,0,0,0,1.566,-1.489,0.187
 20:58:57.753,-1.4857,1.56499,-0.0222356,0,0,0,1.566,-1.489,0.187
 20:58:57.763,-1.48528,1.56494,-0.0222341,0,0,0,1.566,-1.489,0.187
 20:58:57.773,-1.48542,1.56486,-0.0222322,0,0,0,1.566,-1.489,0.187
 20:58:57.783,-1.48498,1.56479,-0.0222303,0,0,0,1.566,-1.489,0.187
 20:58:57.793,-1.48514,1.56473,-0.0222289,0,0,0,1.566,-1.489,0.187
 20:58:57.803,-1.4853,1.56468,-0.0222275,0,0,0,1.566,-1.489,0.187
 20:58:57.813,-1.48486,1.56461,-0.0222256,0,0,0,1.566,-1.489,0.187
 20:58:57.823,-1.48443,1.56454,-0.0222238,0,0,0,1.566,-1.489,0.187
 20:58:57.834,-1.48402,1.56449,-0.0222224,0,0,0,1.566,-1.489,0.187
 20:58:57.843,-1.48419,1.56443,-0.0222211,0,0,0,1.566,-1.489,0.187
 20:58:57.853,-1.48322,1.56497,-0.0222351,0,0,0,1.566,-1.489,0.187
 20:58:57.863,-1.48285,1.56553,-0.0222494,0,0,0,1.571,-1.489,0.187
 20:58:57.873,-1.48304,1.56548,-0.0222481,0,0,0,1.571,-1.489,0.187
 20:58:57.883,-1.48266,1.56543,-0.0222469,0,0,0,1.571,-1.489,0.187
 20:58:57.894,-1.48228,1.56538,-0.0222457,0,0,0,1.571,-1.489,0.187
 20:58:57.903,-1.48248,1.56476,-0.0222296,0,0,0,1.566,-1.489,0.187
 20:58:57.913,-1.48268,1.56414,-0.0222136,0,0,0,1.566,-1.489,0.187
 20:58:57.923,-1.48228,1.56409,-0.0222123,0,0,0,1.566,-1.489,0.187
 20:58:57.933,-1.48247,1.56404,-0.022211,0,0,0,1.566,-1.489,0.187
 20:58:57.943,-1.48267,1.56459,-0.0222251,0,0,0,1.566,-1.489,0.187
 20:58:57.953,-1.48288,1.56457,-0.0222245,0,0,0,1.566,-1.489,0.187
 20:58:57.963,-1.4825,1.56453,-0.0222236,0,0,0,1.566,-1.489,0.187
 20:58:57.973,-1.48212,1.56449,-0.0222226,0,0,0,1.566,-1.489,0.187
 20:58:57.983,-1.48175,1.56445,-0.0222216,0,0,0,1.566,-1.489,0.187
 20:58:57.993,-1.48195,1.56442,-0.0222207,0,0,0,1.566,-1.489,0.187
 20:58:58.003,-1.48216,1.5638,-0.0222048,0,0,0,1.566,-1.489,0.187
 20:58:58.014,-1.48236,1.56377,-0.022204,0,0,0,1.566,-1.489,0.187
 20:58:58.023,-1.48256,1.56316,-0.0221883,0,0,0,1.566,-1.489,0.187
 20:58:58.034,-1.48218,1.56256,-0.0221727,0,0,0,1.566,-1.489,0.187
 20:58:58.043,-1.48237,1.56253,-0.0221718,0,0,0,1.566,-1.489,0.187
 20:58:58.054,-1.48197,1.56248,-0.0221706,0,0,0,1.566,-1.489,0.187
 20:58:58.064,-1.48214,1.56243,-0.0221693,0,0,0,1.566,-1.489,0.187
 20:58:58.073,-1.48233,1.5624,-0.0221685,0,0,0,1.566,-1.489,0.187
 20:58:58.083,-1.48308,1.56293,-0.0221822,0,0,0,1.566,-1.489,0.187
 20:58:58.093,-1.48324,1.56345,-0.0221957,0,0,0,1.566,-1.489,0.187
 20:58:58.103,-1.4834,1.56339,-0.0221942,0,0,0,1.566,-1.489,0.187
 20:58:58.113,-1.48354,1.56332,-0.0221923,0,0,0,1.566,-1.489,0.187
 20:58:58.123,-1.48314,1.56328,-0.0221912,0,0,0,1.566,-1.489,0.187
 20:58:58.134,-1.48273,1.56322,-0.0221898,0,0,0,1.566,-1.489,0.187
 20:58:58.144,-1.48232,1.56317,-0.0221883,0,0,0,1.566,-1.489,0.187
 20:58:58.154,-1.4825,1.56313,-0.0221873,0,0,0,1.566,-1.489,0.187
 20:58:58.164,-1.48269,1.56309,-0.0221863,0,0,0,1.566,-1.489,0.187
 20:58:58.174,-1.48229,1.56247,-0.0221703,0,0,0,1.566,-1.489,0.187
 20:58:58.183,-1.48249,1.56245,-0.0221699,0,0,0,1.566,-1.489,0.187
 20:58:58.193,-1.48268,1.56184,-0.0221541,0,0,0,1.566,-1.489,0.187
 20:58:58.203,-1.48228,1.56182,-0.0221534,0,0,0,1.566,-1.489,0.187
 20:58:58.214,-1.48189,1.56179,-0.0221527,0,0,0,1.566,-1.489,0.187
 20:58:58.224,-1.48208,1.56234,-0.022167,0,0,0,1.566,-1.489,0.187
 20:58:58.234,-1.48169,1.56289,-0.0221811,0,0,0,1.566,-1.489,0.187
 20:58:58.244,-1.48189,1.56285,-0.0221802,0,0,0,1.566,-1.489,0.187
 20:58:58.254,-1.48151,1.56283,-0.0221796,0,0,0,1.566,-1.489,0.187
 20:58:58.264,-1.48174,1.56282,-0.0221795,0,0,0,1.566,-1.489,0.187
 20:58:58.274,-1.48135,1.56279,-0.0221786,0,0,0,1.566,-1.489,0.187
 20:58:58.283,-1.48155,1.56275,-0.0221776,0,0,0,1.566,-1.489,0.187
 20:58:58.294,-1.4823,1.56212,-0.0221614,0,0,0,1.566,-1.489,0.187
 20:58:58.304,-1.48248,1.5615,-0.0221453,0,0,0,1.566,-1.489,0.187
 20:58:58.314,-1.48266,1.56148,-0.0221447,0,0,0,1.566,-1.489,0.187
 20:58:58.324,-1.48228,1.56147,-0.0221445,0,0,0,1.566,-1.489,0.187
 20:58:58.334,-1.48248,1.56204,-0.0221593,0,0,0,1.566,-1.489,0.187
 20:58:58.344,-1.48268,1.56261,-0.0221739,0,0,0,1.566,-1.489,0.187
 20:58:58.354,-1.48288,1.56259,-0.0221734,0,0,0,1.566,-1.489,0.187
 20:58:58.363,-1.48307,1.56257,-0.0221729,0,0,0,1.566,-1.489,0.187
 20:58:58.373,-1.48268,1.56254,-0.0221721,0,0,0,1.566,-1.489,0.187
 20:58:58.384,-1.4823,1.56252,-0.0221716,0,0,0,1.566,-1.489,0.187
 20:58:58.394,-1.48192,1.5625,-0.0221712,0,0,0,1.566,-1.489,0.187
 20:58:58.404,-1.48212,1.56248,-0.0221707,0,0,0,1.566,-1.489,0.187
 20:58:58.414,-1.48233,1.56247,-0.0221703,0,0,0,1.566,-1.489,0.187
 20:58:58.424,-1.48195,1.56245,-0.0221698,0,0,0,1.566,-1.489,0.187
 20:58:58.434,-1.48216,1.56243,-0.0221694,0,0,0,1.566,-1.489,0.187
 20:58:58.444,-1.48119,1.5624,-0.0221686,0,0,0,1.566,-1.489,0.187
 20:58:58.453,-1.4814,1.56239,-0.0221681,0,0,0,1.566,-1.489,0.187
 20:58:58.464,-1.48161,1.56237,-0.0221677,0,0,0,1.566,-1.489,0.187
 20:58:58.474,-1.48182,1.56235,-0.0221673,0,0,0,1.566,-1.489,0.187
 20:58:58.484,-1.48318,1.56291,-0.0221818,0,0,0,1.566,-1.489,0.187
 20:58:58.494,-1.48164,1.56232,-0.0221663,0,0,0,1.566,-1.489,0.187
 20:58:58.504,-1.4818,1.56168,-0.0221498,0,0,0,1.566,-1.489,0.187
 20:58:58.514,-1.48201,1.56167,-0.0221496,0,0,0,1.566,-1.489,0.187
 20:58:58.524,-1.48106,1.56224,-0.0221643,0,0,0,1.566,-1.489,0.187
 20:58:58.533,-1.48185,1.56222,-0.0221639,0,0,0,1.566,-1.489,0.187
 20:58:58.544,-1.48091,1.56164,-0.022149,0,0,0,1.566,-1.489,0.187
 20:58:58.554,-1.48227,1.5622,-0.0221633,0,0,0,1.566,-1.489,0.187
 20:58:58.564,-1.48131,1.56218,-0.0221629,0,0,0,1.566,-1.489,0.187
 20:58:58.574,-1.48209,1.56273,-0.022177,0,0,0,1.566,-1.489,0.187
 20:58:58.584,-1.48227,1.56327,-0.0221911,0,0,0,1.566,-1.489,0.187
 20:58:58.594,-1.48187,1.56379,-0.0222045,0,0,0,1.566,-1.489,0.187
 20:58:58.603,-1.48262,1.56373,-0.0222029,0,0,0,1.566,-1.489,0.187
 20:58:58.614,-1.48224,1.5637,-0.0222021,0,0,0,1.566,-1.489,0.187
 20:58:58.624,-1.48358,1.56366,-0.022201,0,0,0,1.566,-1.489,0.187
 20:58:58.634,-1.48262,1.56363,-0.0222002,0,0,0,1.566,-1.489,0.187
 20:58:58.644,-1.48394,1.56414,-0.0222136,0,0,0,1.566,-1.489,0.187
 20:58:58.654,-1.48354,1.56411,-0.0222127,0,0,0,1.566,-1.489,0.187
 20:58:58.664,-1.48429,1.56464,-0.0222264,0,0,0,1.566,-1.489,0.187
 20:58:58.674,-1.48388,1.56516,-0.0222399,0,0,0,1.571,-1.489,0.187
 20:58:58.684,-1.48404,1.56566,-0.0222529,0,0,0,1.571,-1.489,0.187
 20:58:58.694,-1.48419,1.56616,-0.0222658,0,0,0,1.571,-1.489,0.187
 20:58:58.704,-1.48436,1.56551,-0.022249,0,0,0,1.571,-1.489,0.187
 20:58:58.715,-1.48452,1.56545,-0.0222474,0,0,0,1.571,-1.489,0.187
 20:58:58.724,-1.48469,1.56538,-0.0222458,0,0,0,1.571,-1.489,0.187
 20:58:58.734,-1.48483,1.56588,-0.0222587,0,0,0,1.571,-1.489,0.187
 20:58:58.744,-1.48498,1.5658,-0.0222565,0,0,0,1.571,-1.489,0.187
 20:58:58.754,-1.48514,1.56573,-0.0222548,0,0,0,1.571,-1.489,0.187
 20:58:58.765,-1.4853,1.56567,-0.0222531,0,0,0,1.571,-1.489,0.187
 20:58:58.774,-1.48603,1.5656,-0.0222515,0,0,0,1.571,-1.489,0.187
 20:58:58.784,-1.48618,1.56496,-0.0222348,0,0,0,1.566,-1.489,0.187
 20:58:58.794,-1.48631,1.56489,-0.0222329,0,0,0,1.566,-1.489,0.187
 20:58:58.804,-1.48644,1.56482,-0.022231,0,0,0,1.566,-1.489,0.187
 20:58:58.814,-1.48659,1.56418,-0.0222146,0,0,0,1.566,-1.489,0.187
 20:58:58.824,-1.48617,1.56415,-0.0222137,0,0,0,1.566,-1.494,0.187
 20:58:58.834,-1.48633,1.56354,-0.0221979,0,0,0,1.566,-1.489,0.187
 20:58:58.844,-1.4859,1.56349,-0.0221967,0,0,0,1.566,-1.489,0.187
 20:58:58.854,-1.48547,1.56345,-0.0221956,0,0,0,1.566,-1.489,0.187
 20:58:58.864,-1.48504,1.56339,-0.0221941,0,0,0,1.566,-1.489,0.187
 20:58:58.875,-1.48518,1.56334,-0.0221926,0,0,0,1.566,-1.489,0.187
 20:58:58.884,-1.48534,1.56329,-0.0221915,0,0,0,1.566,-1.489,0.187
 20:58:58.894,-1.48549,1.56325,-0.0221905,0,0,0,1.566,-1.489,0.187
 20:58:58.905,-1.48507,1.56264,-0.0221745,0,0,0,1.566,-1.489,0.187
 20:58:58.915,-1.48464,1.56259,-0.0221732,0,0,0,1.566,-1.489,0.187
 20:58:58.924,-1.48479,1.56254,-0.0221719,0,0,0,1.566,-1.489,0.187
 20:58:58.934,-1.48495,1.5625,-0.022171,0,0,0,1.566,-1.489,0.187
 20:58:58.945,-1.48511,1.56305,-0.0221851,0,0,0,1.566,-1.489,0.187
 20:58:58.955,-1.48525,1.56357,-0.0221986,0,0,0,1.566,-1.489,0.187
 20:58:58.964,-1.48484,1.56412,-0.0222129,0,0,0,1.566,-1.489,0.187
 20:58:58.975,-1.485,1.56407,-0.0222116,0,0,0,1.566,-1.489,0.187
 20:58:58.984,-1.48458,1.56402,-0.0222103,0,0,0,1.566,-1.489,0.187
 20:58:58.994,-1.48475,1.56397,-0.0222091,0,0,0,1.566,-1.489,0.187
 20:58:59.004,-1.48489,1.56391,-0.0222074,0,0,0,1.566,-1.489,0.187
 20:58:59.014,-1.48449,1.56388,-0.0222066,0,0,0,1.566,-1.489,0.187
 20:58:59.025,-1.48408,1.56383,-0.0222054,0,0,0,1.566,-1.489,0.187
 20:58:59.035,-1.48423,1.56377,-0.0222038,0,0,0,1.566,-1.489,0.187
 20:58:59.044,-1.48381,1.56371,-0.0222022,0,0,0,1.566,-1.489,0.187
 20:58:59.055,-1.48339,1.56365,-0.0222006,0,0,0,1.566,-1.489,0.187
 20:58:59.065,-1.48299,1.5636,-0.0221995,0,0,0,1.566,-1.489,0.187
 20:58:59.074,-1.48317,1.56298,-0.0221834,0,0,0,1.566,-1.489,0.187
 20:58:59.085,-1.48277,1.56294,-0.0221824,0,0,0,1.566,-1.489,0.187
 20:58:59.094,-1.48293,1.56289,-0.0221811,0,0,0,1.566,-1.489,0.187
 20:58:59.105,-1.48311,1.56343,-0.022195,0,0,0,1.566,-1.489,0.187
 20:58:59.115,-1.48327,1.56337,-0.0221935,0,0,0,1.566,-1.489,0.187
 20:58:59.125,-1.48345,1.56333,-0.0221924,0,0,0,1.566,-1.489,0.187
 20:58:59.135,-1.48361,1.56327,-0.022191,0,0,0,1.566,-1.489,0.187
 20:58:59.144,-1.4838,1.56382,-0.0222053,0,0,0,1.566,-1.489,0.187
 20:58:59.155,-1.48397,1.56378,-0.0222041,0,0,0,1.566,-1.489,0.187
 20:58:59.164,-1.48356,1.56373,-0.0222029,0,0,0,1.566,-1.489,0.187
 20:58:59.174,-1.48374,1.56369,-0.0222017,0,0,0,1.566,-1.489,0.187
 20:58:59.184,-1.48391,1.56364,-0.0222006,0,0,0,1.566,-1.489,0.187
 20:58:59.194,-1.48409,1.56361,-0.0221998,0,0,0,1.566,-1.489,0.187
 20:58:59.204,-1.4837,1.56301,-0.0221841,0,0,0,1.566,-1.489,0.187
 20:58:59.214,-1.48332,1.56242,-0.022169,0,0,0,1.566,-1.489,0.187
 20:58:59.224,-1.48351,1.56241,-0.0221685,0,0,0,1.566,-1.489,0.187
 20:58:59.235,-1.48428,1.56181,-0.0221531,0,0,0,1.566,-1.489,0.187
 20:58:59.245,-1.48504,1.5618,-0.0221529,0,0,0,1.566,-1.489,0.187
 20:58:59.255,-1.48464,1.56121,-0.0221376,0,0,0,1.566,-1.489,0.187
 20:58:59.265,-1.48538,1.56119,-0.0221371,0,0,0,1.566,-1.489,0.187
 20:58:59.275,-1.48555,1.56177,-0.022152,0,0,0,1.566,-1.489,0.187
 20:58:59.285,-1.4857,1.56232,-0.0221663,0,0,0,1.566,-1.489,0.187
 20:58:59.295,-1.48585,1.56229,-0.0221655,0,0,0,1.566,-1.489,0.187
 20:58:59.305,-1.48602,1.56169,-0.0221501,0,0,0,1.566,-1.489,0.187
 20:58:59.315,-1.4862,1.5617,-0.0221503,0,0,0,1.566,-1.489,0.187
 20:58:59.325,-1.48636,1.56111,-0.022135,0,0,0,1.566,-1.489,0.187
 20:58:59.335,-1.48652,1.56111,-0.0221349,0,0,0,1.566,-1.489,0.187
 20:58:59.345,-1.48668,1.56053,-0.0221199,0,0,0,1.566,-1.489,0.187
 20:58:59.355,-1.48626,1.56053,-0.0221199,0,0,0,1.566,-1.489,0.187
 20:58:59.365,-1.48583,1.56052,-0.0221196,0,0,0,1.566,-1.489,0.187
 20:58:59.375,-1.48598,1.5605,-0.0221192,0,0,0,1.566,-1.489,0.187
 20:58:59.385,-1.48613,1.56049,-0.0221189,0,0,0,1.566,-1.489,0.187
 20:58:59.395,-1.48572,1.56049,-0.022119,0,0,0,1.566,-1.489,0.187
 20:58:59.405,-1.48588,1.56107,-0.022134,0,0,0,1.566,-1.489,0.187
 20:58:59.415,-1.48603,1.56105,-0.0221335,0,0,0,1.566,-1.489,0.187
 20:58:59.425,-1.48618,1.56104,-0.022133,0,0,0,1.566,-1.489,0.187
 20:58:59.435,-1.48631,1.561,-0.0221322,0,0,0,1.566,-1.489,0.187
 20:58:59.445,-1.48644,1.56097,-0.0221313,0,0,0,1.566,-1.489,0.187
 20:58:59.455,-1.48657,1.56093,-0.0221304,0,0,0,1.566,-1.489,0.187
 20:58:59.465,-1.48672,1.56034,-0.022115,0,0,0,1.566,-1.489,0.187
 20:58:59.475,-1.48686,1.56033,-0.0221147,0,0,0,1.566,-1.489,0.187
 20:58:59.485,-1.48642,1.56032,-0.0221144,0,0,0,1.566,-1.489,0.187
 20:58:59.495,-1.48599,1.56031,-0.0221141,0,0,0,1.566,-1.489,0.187
 20:58:59.505,-1.48614,1.56029,-0.0221138,0,0,0,1.566,-1.489,0.187
 20:58:59.515,-1.48629,1.55971,-0.0220986,0,0,0,1.566,-1.489,0.187
 20:58:59.525,-1.48644,1.5597,-0.0220984,0,0,0,1.566,-1.489,0.187
 20:58:59.536,-1.48658,1.5597,-0.0220983,0,0,0,1.566,-1.489,0.187
 20:58:59.545,-1.48615,1.56027,-0.0221131,0,0,0,1.566,-1.489,0.187
 20:58:59.555,-1.4857,1.56024,-0.0221124,0,0,0,1.566,-1.489,0.187
 20:58:59.565,-1.48585,1.56023,-0.0221122,0,0,0,1.566,-1.489,0.187
 20:58:59.575,-1.48602,1.56081,-0.0221273,0,0,0,1.566,-1.489,0.187
 20:58:59.585,-1.48618,1.56081,-0.0221273,0,0,0,1.566,-1.489,0.187
 20:58:59.595,-1.48633,1.5608,-0.0221269,0,0,0,1.566,-1.489,0.187
 20:58:59.606,-1.48593,1.56081,-0.0221273,0,0,0,1.566,-1.489,0.187
 20:58:59.616,-1.48609,1.56081,-0.0221272,0,0,0,1.566,-1.489,0.187
 20:58:59.626,-1.48568,1.56081,-0.0221272,0,0,0,1.566,-1.489,0.187
 20:58:59.635,-1.48526,1.5608,-0.0221268,0,0,0,1.566,-1.489,0.187
 20:58:59.645,-1.48483,1.56078,-0.0221264,0,0,0,1.566,-1.489,0.187
 20:58:59.655,-1.48503,1.5608,-0.0221268,0,0,0,1.566,-1.489,0.187
 20:58:59.665,-1.48579,1.56081,-0.0221272,0,0,0,1.566,-1.489,0.187
 20:58:59.675,-1.48596,1.56081,-0.0221272,0,0,0,1.566,-1.489,0.187
 20:58:59.686,-1.48612,1.56081,-0.0221272,0,0,0,1.566,-1.489,0.187
 20:58:59.695,-1.48569,1.56079,-0.0221268,0,0,0,1.566,-1.489,0.187
 20:58:59.705,-1.48586,1.56079,-0.0221267,0,0,0,1.566,-1.489,0.187
 20:58:59.715,-1.48603,1.56079,-0.0221267,0,0,0,1.566,-1.489,0.187
 20:58:59.725,-1.48618,1.56078,-0.0221263,0,0,0,1.566,-1.489,0.187
 20:58:59.736,-1.48575,1.56076,-0.0221259,0,0,0,1.566,-1.489,0.187
 20:58:59.745,-1.48588,1.56131,-0.02214,0,0,0,1.566,-1.489,0.187
 20:58:59.755,-1.48546,1.56129,-0.0221395,0,0,0,1.566,-1.489,0.187
 20:58:59.765,-1.48505,1.56128,-0.0221394,0,0,0,1.566,-1.489,0.187
 20:58:59.775,-1.48521,1.56126,-0.0221388,0,0,0,1.566,-1.489,0.187
 20:58:59.785,-1.48538,1.56125,-0.0221387,0,0,0,1.566,-1.489,0.187
 20:58:59.796,-1.48553,1.56123,-0.0221382,0,0,0,1.566,-1.489,0.187
 20:58:59.806,-1.48513,1.56123,-0.022138,0,0,0,1.566,-1.489,0.187
 20:58:59.816,-1.48528,1.56121,-0.0221375,0,0,0,1.566,-1.489,0.187
 20:58:59.826,-1.48546,1.5612,-0.0221374,0,0,0,1.566,-1.489,0.187
 20:58:59.836,-1.48563,1.5612,-0.0221373,0,0,0,1.566,-1.489,0.187
 20:58:59.845,-1.48578,1.56118,-0.0221368,0,0,0,1.566,-1.489,0.187
 20:58:59.855,-1.48594,1.56118,-0.0221367,0,0,0,1.566,-1.489,0.187
 20:58:59.866,-1.48553,1.56117,-0.0221365,0,0,0,1.566,-1.489,0.187
 20:58:59.876,-1.4857,1.56117,-0.0221364,0,0,0,1.566,-1.489,0.187
 20:58:59.886,-1.48587,1.56116,-0.0221363,0,0,0,1.571,-1.489,0.187
 20:58:59.896,-1.48603,1.56116,-0.0221362,0,0,0,1.566,-1.489,0.187
 20:58:59.906,-1.48621,1.56117,-0.0221365,0,0,0,1.566,-1.489,0.187
 20:58:59.916,-1.48638,1.56117,-0.0221364,0,0,0,1.566,-1.489,0.187
 20:58:59.926,-1.48711,1.56116,-0.0221363,0,0,0,1.566,-1.489,0.187
 20:58:59.936,-1.48727,1.56116,-0.0221362,0,0,0,1.566,-1.489,0.187
 20:58:59.946,-1.48742,1.56116,-0.0221361,0,0,0,1.566,-1.489,0.187
 20:58:59.956,-1.48699,1.56115,-0.022136,0,0,0,1.566,-1.489,0.187
 20:58:59.966,-1.48714,1.56115,-0.0221359,0,0,0,1.566,-1.489,0.187
 20:58:59.976,-1.48672,1.56057,-0.0221208,0,0,0,1.566,-1.489,0.187
 20:58:59.986,-1.48688,1.56057,-0.0221209,0,0,0,1.566,-1.489,0.187
 20:58:59.996,-1.48646,1.56057,-0.0221209,0,0,0,1.566,-1.489,0.187
 20:59:00.006,-1.48604,1.56057,-0.022121,0,0,0,1.566,-1.489,0.187
 20:59:00.016,-1.4862,1.56115,-0.022136,0,0,0,1.566,-1.489,0.187
 20:59:00.026,-1.48638,1.56116,-0.0221363,0,0,0,1.566,-1.489,0.187
 20:59:00.036,-1.48652,1.56114,-0.0221358,0,0,0,1.566,-1.489,0.187
 20:59:00.046,-1.48724,1.56112,-0.0221353,0,0,0,1.566,-1.489,0.187
 20:59:00.055,-1.4868,1.5611,-0.0221348,0,0,0,1.566,-1.489,0.187
 20:59:00.065,-1.48635,1.56049,-0.0221189,0,0,0,1.566,-1.489,0.187
 20:59:00.075,-1.4865,1.56106,-0.0221336,0,0,0,1.566,-1.489,0.187
 20:59:00.086,-1.48664,1.56162,-0.0221481,0,0,0,1.566,-1.489,0.187
 20:59:00.096,-1.48621,1.56217,-0.0221624,0,0,0,1.566,-1.489,0.187
 20:59:00.106,-1.48578,1.56214,-0.0221616,0,0,0,1.566,-1.489,0.187
 20:59:00.116,-1.48595,1.56155,-0.0221463,0,0,0,1.566,-1.489,0.187
 20:59:00.126,-1.48552,1.56152,-0.0221457,0,0,0,1.566,-1.489,0.187
 20:59:00.135,-1.4851,1.5615,-0.0221451,0,0,0,1.566,-1.489,0.187
 20:59:00.146,-1.48468,1.56148,-0.0221445,0,0,0,1.566,-1.489,0.187
 20:59:00.156,-1.48482,1.56144,-0.0221435,0,0,0,1.566,-1.489,0.187
 20:59:00.166,-1.48497,1.5614,-0.0221425,0,0,0,1.566,-1.489,0.187
 20:59:00.176,-1.48569,1.56136,-0.0221415,0,0,0,1.566,-1.489,0.187
 20:59:00.186,-1.48527,1.56076,-0.022126,0,0,0,1.566,-1.489,0.187
 20:59:00.195,-1.48485,1.56075,-0.0221256,0,0,0,1.566,-1.489,0.187
 20:59:00.207,-1.48499,1.56072,-0.0221248,0,0,0,1.566,-1.489,0.187
 20:59:00.216,-1.48515,1.5607,-0.0221244,0,0,0,1.566,-1.489,0.187
 20:59:00.226,-1.48473,1.56069,-0.022124,0,0,0,1.566,-1.489,0.187
 20:59:00.236,-1.4843,1.56066,-0.0221232,0,0,0,1.566,-1.489,0.187
 20:59:00.246,-1.48447,1.56064,-0.0221228,0,0,0,1.566,-1.489,0.187
 20:59:00.256,-1.48349,1.56122,-0.0221378,0,0,0,1.566,-1.489,0.187
 20:59:00.266,-1.48424,1.56178,-0.0221522,0,0,0,1.566,-1.489,0.187
 20:59:00.276,-1.48383,1.56175,-0.0221516,0,0,0,1.566,-1.483,0.187
 20:59:00.286,-1.484,1.56173,-0.0221509,0,0,0,1.566,-1.489,0.187
 20:59:00.296,-1.48417,1.5617,-0.0221502,0,0,0,1.566,-1.483,0.187
 20:59:00.306,-1.48318,1.56225,-0.0221645,0,0,0,1.566,-1.489,0.187
 20:59:00.316,-1.48394,1.5628,-0.0221787,0,0,0,1.566,-1.489,0.187
 20:59:00.326,-1.48295,1.56276,-0.0221777,0,0,0,1.566,-1.483,0.187
 20:59:00.336,-1.48312,1.56386,-0.0222063,0,0,0,1.566,-1.489,0.187
 20:59:00.346,-1.48328,1.56323,-0.0221897,0,0,0,1.566,-1.483,0.187
 20:59:00.356,-1.48288,1.56319,-0.0221887,0,0,0,1.566,-1.483,0.187
 20:59:00.367,-1.48364,1.56315,-0.0221876,0,0,0,1.566,-1.483,0.187
 20:59:00.376,-1.48323,1.56311,-0.0221866,0,0,0,1.566,-1.483,0.187
 20:59:00.386,-1.48339,1.56363,-0.0222001,0,0,0,1.566,-1.483,0.187
 20:59:00.396,-1.48242,1.56301,-0.022184,0,0,0,1.566,-1.483,0.187
 20:59:00.407,-1.4826,1.56355,-0.022198,0,0,0,1.566,-1.483,0.187
 20:59:00.416,-1.48222,1.5641,-0.0222122,0,0,0,1.566,-1.483,0.187
 20:59:00.426,-1.48242,1.56406,-0.0222113,0,0,0,1.566,-1.483,0.187
 20:59:00.436,-1.48205,1.56403,-0.0222105,0,0,0,1.566,-1.483,0.187
 20:59:00.446,-1.48166,1.56398,-0.0222092,0,0,0,1.566,-1.483,0.187
 20:59:00.457,-1.48127,1.56393,-0.022208,0,0,0,1.566,-1.483,0.187
 20:59:00.466,-1.48089,1.56389,-0.0222068,0,0,0,1.566,-1.483,0.187
 20:59:00.476,-1.48052,1.56384,-0.0222056,0,0,0,1.566,-1.483,0.187
 20:59:00.486,-1.48014,1.56437,-0.0222193,0,0,0,1.566,-1.483,0.187
 20:59:00.496,-1.48035,1.56489,-0.0222328,0,0,0,1.571,-1.483,0.187
 20:59:00.507,-1.48057,1.56485,-0.0222318,0,0,0,1.571,-1.483,0.187
 20:59:00.516,-1.4802,1.5648,-0.0222303,0,0,0,1.571,-1.483,0.187
 20:59:00.526,-1.4804,1.56474,-0.0222289,0,0,0,1.571,-1.483,0.187
 20:59:00.536,-1.48061,1.56411,-0.0222125,0,0,0,1.571,-1.483,0.187
 20:59:00.546,-1.48081,1.56348,-0.0221963,0,0,0,1.571,-1.483,0.187
 20:59:00.556,-1.481,1.56342,-0.0221948,0,0,0,1.566,-1.483,0.187
 20:59:00.567,-1.4812,1.56338,-0.0221937,0,0,0,1.566,-1.483,0.187
 20:59:00.577,-1.48082,1.56334,-0.0221927,0,0,0,1.566,-1.483,0.187
 20:59:00.586,-1.48044,1.5633,-0.0221916,0,0,0,1.566,-1.483,0.187
 20:59:00.596,-1.48066,1.56269,-0.022176,0,0,0,1.566,-1.483,0.187
 20:59:00.607,-1.48086,1.56266,-0.0221751,0,0,0,1.566,-1.483,0.187
 20:59:00.617,-1.48049,1.56205,-0.0221593,0,0,0,1.566,-1.483,0.187
 20:59:00.626,-1.48012,1.56144,-0.0221436,0,0,0,1.566,-1.483,0.187
 20:59:00.636,-1.47917,1.562,-0.022158,0,0,0,1.566,-1.483,0.187
 20:59:00.647,-1.47881,1.56197,-0.0221572,0,0,0,1.566,-1.483,0.187
 20:59:00.657,-1.47903,1.56194,-0.0221565,0,0,0,1.566,-1.483,0.187
 20:59:00.667,-1.47869,1.56251,-0.0221711,0,0,0,1.566,-1.483,0.187
 20:59:00.677,-1.47892,1.56249,-0.0221707,0,0,0,1.566,-1.483,0.187
 20:59:00.686,-1.47858,1.56247,-0.0221702,0,0,0,1.566,-1.483,0.187
 20:59:00.696,-1.47824,1.56303,-0.0221847,0,0,0,1.566,-1.483,0.187
 20:59:00.707,-1.47791,1.56301,-0.0221841,0,0,0,1.566,-1.483,0.187
 20:59:00.716,-1.47815,1.56299,-0.0221835,0,0,0,1.566,-1.483,0.187
 20:59:00.726,-1.4778,1.56295,-0.0221826,0,0,0,1.566,-1.483,0.187
 20:59:00.736,-1.47744,1.5629,-0.0221812,0,0,0,1.566,-1.483,0.187
 20:59:00.746,-1.47709,1.56284,-0.0221798,0,0,0,1.566,-1.483,0.187
 20:59:00.756,-1.47617,1.56281,-0.0221789,0,0,0,1.566,-1.478,0.187
 20:59:00.767,-1.47584,1.56277,-0.0221779,0,0,0,1.566,-1.478,0.187
 20:59:00.777,-1.4755,1.56272,-0.0221766,0,0,0,1.566,-1.478,0.187
 20:59:00.787,-1.47519,1.5627,-0.0221761,0,0,0,1.566,-1.478,0.187
 20:59:00.796,-1.47489,1.56326,-0.0221905,0,0,0,1.566,-1.478,0.187
 20:59:00.806,-1.47457,1.56322,-0.0221894,0,0,0,1.566,-1.478,0.187
 20:59:00.817,-1.47424,1.56316,-0.022188,0,0,0,1.566,-1.478,0.187
 20:59:00.827,-1.47392,1.56311,-0.0221866,0,0,0,1.566,-1.478,0.187
 20:59:00.837,-1.47417,1.56363,-0.0222,0,0,0,1.566,-1.478,0.187
 20:59:00.847,-1.47386,1.56416,-0.0222137,0,0,0,1.566,-1.478,0.187
 20:59:00.857,-1.47413,1.56411,-0.0222124,0,0,0,1.566,-1.478,0.187
 20:59:00.867,-1.4744,1.56406,-0.0222112,0,0,0,1.566,-1.478,0.187
 20:59:00.876,-1.47468,1.56403,-0.0222103,0,0,0,1.566,-1.478,0.187
 20:59:00.887,-1.47438,1.56342,-0.0221946,0,0,0,1.566,-1.478,0.187
 20:59:00.897,-1.47464,1.56338,-0.0221935,0,0,0,1.566,-1.478,0.187
 20:59:00.907,-1.47548,1.56333,-0.0221924,0,0,0,1.566,-1.478,0.187
 20:59:00.917,-1.47574,1.56272,-0.0221765,0,0,0,1.566,-1.478,0.187
 20:59:00.927,-1.47601,1.5627,-0.022176,0,0,0,1.566,-1.478,0.187
 20:59:00.937,-1.47569,1.56268,-0.0221755,0,0,0,1.566,-1.478,0.187
 20:59:00.947,-1.47594,1.56264,-0.0221746,0,0,0,1.566,-1.478,0.187
 20:59:00.957,-1.47619,1.56261,-0.0221737,0,0,0,1.566,-1.478,0.187
 20:59:00.966,-1.47646,1.56317,-0.0221881,0,0,0,1.566,-1.478,0.187
 20:59:00.977,-1.47728,1.5637,-0.022202,0,0,0,1.566,-1.478,0.187
 20:59:00.987,-1.47694,1.56424,-0.0222157,0,0,0,1.566,-1.478,0.187
 20:59:00.997,-1.47718,1.56476,-0.0222293,0,0,0,1.566,-1.483,0.187
 20:59:01.007,-1.4774,1.56469,-0.0222274,0,0,0,1.566,-1.483,0.187
 20:59:01.017,-1.47762,1.56462,-0.0222256,0,0,0,1.566,-1.483,0.187
 20:59:01.027,-1.47787,1.564,-0.0222097,0,0,0,1.566,-1.483,0.187
 20:59:01.037,-1.47752,1.56396,-0.0222085,0,0,0,1.566,-1.483,0.187
 20:59:01.047,-1.47775,1.56391,-0.0222072,0,0,0,1.566,-1.483,0.187
 20:59:01.057,-1.47799,1.56386,-0.022206,0,0,0,1.566,-1.483,0.187
 20:59:01.067,-1.47822,1.56381,-0.0222048,0,0,0,1.566,-1.483,0.187
 20:59:01.078,-1.47846,1.56436,-0.0222189,0,0,0,1.566,-1.483,0.187
 20:59:01.087,-1.47868,1.56431,-0.0222176,0,0,0,1.566,-1.483,0.187
 20:59:01.098,-1.4789,1.56426,-0.0222163,0,0,0,1.566,-1.483,0.187
 20:59:01.107,-1.4797,1.56421,-0.022215,0,0,0,1.566,-1.483,0.187
 20:59:01.117,-1.4799,1.56414,-0.0222133,0,0,0,1.566,-1.483,0.187
 20:59:01.127,-1.48009,1.56408,-0.0222116,0,0,0,1.566,-1.483,0.187
 20:59:01.137,-1.47972,1.56403,-0.0222103,0,0,0,1.566,-1.483,0.187
 20:59:01.147,-1.47992,1.56396,-0.0222087,0,0,0,1.566,-1.483,0.187
 20:59:01.157,-1.48013,1.56334,-0.0221925,0,0,0,1.566,-1.483,0.187
 20:59:01.167,-1.48034,1.5633,-0.0221915,0,0,0,1.566,-1.483,0.187
 20:59:01.177,-1.47995,1.56324,-0.02219,0,0,0,1.566,-1.483,0.187
 20:59:01.187,-1.47959,1.5632,-0.022189,0,0,0,1.566,-1.483,0.187
 20:59:01.197,-1.47922,1.56316,-0.0221879,0,0,0,1.566,-1.483,0.187
 20:59:01.207,-1.47942,1.56253,-0.0221716,0,0,0,1.566,-1.483,0.187
 20:59:01.217,-1.47962,1.56248,-0.0221703,0,0,0,1.566,-1.483,0.187
 20:59:01.227,-1.47984,1.56245,-0.0221695,0,0,0,1.566,-1.483,0.187
 20:59:01.237,-1.48006,1.56243,-0.0221691,0,0,0,1.566,-1.483,0.187
 20:59:01.247,-1.48029,1.56241,-0.0221686,0,0,0,1.566,-1.483,0.187
 20:59:01.257,-1.48049,1.56238,-0.0221678,0,0,0,1.566,-1.483,0.187
 20:59:01.267,-1.48011,1.56233,-0.0221666,0,0,0,1.566,-1.483,0.187
 20:59:01.277,-1.48031,1.5623,-0.0221658,0,0,0,1.566,-1.483,0.187
 20:59:01.287,-1.47996,1.56229,-0.0221654,0,0,0,1.566,-1.483,0.187
 20:59:01.297,-1.4796,1.56285,-0.0221799,0,0,0,1.566,-1.483,0.187
 20:59:01.307,-1.47924,1.56339,-0.0221938,0,0,0,1.566,-1.483,0.187
 20:59:01.318,-1.47949,1.56396,-0.0222085,0,0,0,1.566,-1.483,0.187
 20:59:01.328,-1.47973,1.56452,-0.022223,0,0,0,1.566,-1.483,0.187
 20:59:01.338,-1.47996,1.56448,-0.022222,0,0,0,1.566,-1.483,0.187
 20:59:01.348,-1.48018,1.56445,-0.0222211,0,0,0,1.566,-1.483,0.187
 20:59:01.357,-1.47983,1.56441,-0.0222201,0,0,0,1.566,-1.483,0.187
 20:59:01.367,-1.47946,1.56436,-0.0222188,0,0,0,1.566,-1.483,0.187
 20:59:01.377,-1.47911,1.56432,-0.0222179,0,0,0,1.566,-1.483,0.187
 20:59:01.388,-1.47875,1.56427,-0.0222165,0,0,0,1.566,-1.483,0.187
 20:59:01.397,-1.47896,1.5642,-0.0222148,0,0,0,1.566,-1.483,0.187
 20:59:01.407,-1.47916,1.56471,-0.022228,0,0,0,1.566,-1.483,0.187
 20:59:01.417,-1.4794,1.56467,-0.022227,0,0,0,1.566,-1.483,0.187
 20:59:01.428,-1.47961,1.56404,-0.0222107,0,0,0,1.566,-1.483,0.187
 20:59:01.437,-1.47925,1.56342,-0.0221945,0,0,0,1.566,-1.483,0.187
 20:59:01.447,-1.47948,1.56339,-0.0221938,0,0,0,1.566,-1.483,0.187
 20:59:01.458,-1.47971,1.56336,-0.0221932,0,0,0,1.566,-1.483,0.187
 20:59:01.467,-1.47994,1.56391,-0.0222074,0,0,0,1.566,-1.483,0.187
 20:59:01.477,-1.48018,1.5639,-0.022207,0,0,0,1.566,-1.483,0.187
 20:59:01.488,-1.4804,1.56387,-0.0222062,0,0,0,1.566,-1.483,0.187
 20:59:01.497,-1.48062,1.56384,-0.0222054,0,0,0,1.566,-1.483,0.187
 20:59:01.508,-1.48084,1.56381,-0.0222046,0,0,0,1.566,-1.483,0.187
 20:59:01.517,-1.48105,1.56435,-0.0222187,0,0,0,1.566,-1.483,0.187
 20:59:01.527,-1.48069,1.56432,-0.0222178,0,0,0,1.566,-1.483,0.187
 20:59:01.538,-1.48033,1.56428,-0.0222169,0,0,0,1.566,-1.483,0.187
 20:59:01.547,-1.47996,1.56423,-0.0222156,0,0,0,1.566,-1.483,0.187
 20:59:01.557,-1.4802,1.56363,-0.0222001,0,0,0,1.566,-1.483,0.187
 20:59:01.568,-1.48042,1.56361,-0.0221994,0,0,0,1.566,-1.483,0.187
 20:59:01.578,-1.48006,1.563,-0.0221837,0,0,0,1.566,-1.483,0.187
 20:59:01.587,-1.48088,1.56299,-0.0221836,0,0,0,1.566,-1.483,0.187
 20:59:01.598,-1.48052,1.56297,-0.022183,0,0,0,1.566,-1.483,0.187
 20:59:01.608,-1.48074,1.56353,-0.0221974,0,0,0,1.566,-1.483,0.187
 20:59:01.617,-1.48038,1.5635,-0.0221966,0,0,0,1.566,-1.483,0.187
 20:59:01.627,-1.4806,1.56347,-0.0221959,0,0,0,1.566,-1.483,0.187
 20:59:01.637,-1.4808,1.56401,-0.0222097,0,0,0,1.566,-1.483,0.187
 20:59:01.647,-1.48041,1.56452,-0.022223,0,0,0,1.566,-1.483,0.187
 20:59:01.658,-1.48061,1.56504,-0.0222365,0,0,0,1.566,-1.483,0.187
 20:59:01.667,-1.48025,1.565,-0.0222354,0,0,0,1.571,-1.483,0.187
 20:59:01.677,-1.48048,1.56553,-0.0222493,0,0,0,1.571,-1.483,0.187
 20:59:01.687,-1.48073,1.56552,-0.0222488,0,0,0,1.571,-1.483,0.187
 20:59:01.697,-1.48096,1.56549,-0.022248,0,0,0,1.571,-1.483,0.187
 20:59:01.708,-1.48117,1.56544,-0.0222468,0,0,0,1.571,-1.483,0.187
 20:59:01.718,-1.48137,1.56538,-0.0222452,0,0,0,1.571,-1.483,0.187
 20:59:01.728,-1.4816,1.56535,-0.0222444,0,0,0,1.571,-1.483,0.187
 20:59:01.738,-1.48124,1.56532,-0.0222436,0,0,0,1.571,-1.483,0.187
 20:59:01.748,-1.48089,1.56529,-0.0222428,0,0,0,1.571,-1.483,0.187
 20:59:01.758,-1.48054,1.56526,-0.0222421,0,0,0,1.571,-1.483,0.187
 20:59:01.768,-1.48018,1.56521,-0.0222409,0,0,0,1.566,-1.483,0.187
 20:59:01.778,-1.47983,1.56517,-0.0222398,0,0,0,1.566,-1.483,0.187
 20:59:01.788,-1.47948,1.56512,-0.0222386,0,0,0,1.566,-1.483,0.187
 20:59:01.798,-1.47856,1.5651,-0.0222379,0,0,0,1.566,-1.483,0.187
 20:59:01.808,-1.47823,1.56505,-0.0222368,0,0,0,1.566,-1.483,0.187
 20:59:01.818,-1.47847,1.56501,-0.0222357,0,0,0,1.566,-1.483,0.187
 20:59:01.827,-1.47928,1.56497,-0.0222346,0,0,0,1.566,-1.483,0.187
 20:59:01.838,-1.47953,1.56552,-0.0222489,0,0,0,1.566,-1.483,0.187
 20:59:01.848,-1.47976,1.56605,-0.0222625,0,0,0,1.571,-1.483,0.187
 20:59:01.858,-1.48056,1.566,-0.0222612,0,0,0,1.571,-1.483,0.187
 20:59:01.868,-1.4802,1.56594,-0.0222598,0,0,0,1.571,-1.483,0.187
 20:59:01.878,-1.47927,1.56647,-0.0222734,0,0,0,1.571,-1.483,0.187
 20:59:01.888,-1.47891,1.5664,-0.0222715,0,0,0,1.571,-1.483,0.187
 20:59:01.897,-1.47855,1.56633,-0.0222697,0,0,0,1.571,-1.483,0.187
 20:59:01.908,-1.47879,1.56627,-0.0222682,0,0,0,1.571,-1.483,0.187
 20:59:01.918,-1.47789,1.56623,-0.0222672,0,0,0,1.571,-1.483,0.187
 20:59:01.928,-1.47871,1.56618,-0.0222658,0,0,0,1.571,-1.483,0.187
 20:59:01.939,-1.47895,1.56612,-0.0222644,0,0,0,1.571,-1.483,0.187
 20:59:01.948,-1.47917,1.56605,-0.0222626,0,0,0,1.571,-1.483,0.187
 20:59:01.957,-1.4794,1.56658,-0.0222762,0,0,0,1.571,-1.483,0.187
 20:59:01.968,-1.47849,1.56711,-0.02229,0,0,0,1.571,-1.483,0.187
 20:59:01.978,-1.47932,1.56764,-0.0223037,0,0,0,1.571,-1.483,0.187
 20:59:01.988,-1.47897,1.56758,-0.0223019,0,0,0,1.571,-1.483,0.187
 20:59:01.998,-1.47863,1.56751,-0.0223002,0,0,0,1.571,-1.483,0.187
 20:59:02.008,-1.47943,1.56742,-0.022298,0,0,0,1.571,-1.483,0.187
 20:59:02.019,-1.47793,1.56678,-0.0222814,0,0,0,1.571,-1.483,0.187
 20:59:02.029,-1.47931,1.56728,-0.0222943,0,0,0,1.571,-1.483,0.187
 20:59:02.038,-1.47722,1.56662,-0.0222774,0,0,0,1.571,-1.483,0.187
 20:59:02.049,-1.47744,1.56711,-0.0222899,0,0,0,1.571,-1.483,0.187
 20:59:02.059,-1.4771,1.56703,-0.0222879,0,0,0,1.571,-1.483,0.187
 20:59:02.069,-1.47676,1.56753,-0.0223007,0,0,0,1.571,-1.483,0.187
 20:59:02.078,-1.47759,1.56804,-0.0223139,0,0,0,1.571,-1.483,0.187
 20:59:02.088,-1.47725,1.56795,-0.0223116,0,0,0,1.571,-1.483,0.187
 20:59:02.098,-1.47805,1.56785,-0.0223089,0,0,0,1.571,-1.483,0.187
 20:59:02.109,-1.47771,1.5672,-0.0222922,0,0,0,1.571,-1.483,0.187
 20:59:02.119,-1.47798,1.56657,-0.022276,0,0,0,1.571,-1.483,0.187
 20:59:02.129,-1.47882,1.56595,-0.02226,0,0,0,1.571,-1.483,0.187
 20:59:02.138,-1.4779,1.56532,-0.0222438,0,0,0,1.571,-1.483,0.187
 20:59:02.148,-1.47817,1.56589,-0.0222583,0,0,0,1.571,-1.483,0.187
 20:59:02.158,-1.47727,1.56643,-0.0222723,0,0,0,1.571,-1.483,0.187
 20:59:02.168,-1.47812,1.56697,-0.0222862,0,0,0,1.571,-1.483,0.187
 20:59:02.178,-1.47838,1.5675,-0.0222999,0,0,0,1.571,-1.483,0.187
 20:59:02.188,-1.47804,1.56801,-0.0223131,0,0,0,1.571,-1.483,0.187
 20:59:02.199,-1.47825,1.56791,-0.0223104,0,0,0,1.571,-1.483,0.187
 20:59:02.209,-1.4779,1.56782,-0.0223082,0,0,0,1.571,-1.483,0.187
 20:59:02.219,-1.47813,1.56831,-0.0223208,0,0,0,1.571,-1.483,0.187
 20:59:02.229,-1.47836,1.56879,-0.0223334,0,0,0,1.571,-1.483,0.187
 20:59:02.239,-1.47802,1.56871,-0.0223313,0,0,0,1.571,-1.483,0.187
 20:59:02.248,-1.47767,1.5692,-0.0223437,0,0,0,1.571,-1.483,0.187
 20:59:02.259,-1.47731,1.56908,-0.0223407,0,0,0,1.571,-1.483,0.187
 20:59:02.268,-1.47755,1.56898,-0.0223382,0,0,0,1.571,-1.483,0.187
 20:59:02.278,-1.47778,1.56888,-0.0223357,0,0,0,1.571,-1.483,0.187
 20:59:02.288,-1.47801,1.56879,-0.0223332,0,0,0,1.571,-1.483,0.187
 20:59:02.298,-1.47826,1.56928,-0.022346,0,0,0,1.571,-1.483,0.187
 20:59:02.308,-1.47791,1.56976,-0.0223583,0,0,0,1.571,-1.483,0.187
 20:59:02.318,-1.47756,1.56966,-0.0223555,0,0,0,1.577,-1.483,0.187
 20:59:02.328,-1.47779,1.56955,-0.0223528,0,0,0,1.577,-1.483,0.187
 20:59:02.338,-1.47687,1.56945,-0.0223502,0,0,0,1.577,-1.483,0.187
 20:59:02.349,-1.47711,1.56934,-0.0223475,0,0,0,1.571,-1.483,0.187
 20:59:02.359,-1.47677,1.56924,-0.0223449,0,0,0,1.571,-1.483,0.187
 20:59:02.368,-1.47703,1.56916,-0.0223427,0,0,0,1.571,-1.483,0.187
 20:59:02.378,-1.47728,1.5685,-0.0223257,0,0,0,1.571,-1.483,0.187
 20:59:02.389,-1.47752,1.5684,-0.0223233,0,0,0,1.571,-1.483,0.187
 20:59:02.398,-1.47718,1.56831,-0.0223209,0,0,0,1.571,-1.483,0.187
 20:59:02.409,-1.47744,1.56767,-0.0223045,0,0,0,1.571,-1.483,0.187
 20:59:02.419,-1.47655,1.56762,-0.0223031,0,0,0,1.571,-1.483,0.187
 20:59:02.429,-1.47683,1.56699,-0.0222868,0,0,0,1.571,-1.483,0.187
 20:59:02.438,-1.47536,1.56694,-0.0222856,0,0,0,1.571,-1.483,0.187
 20:59:02.449,-1.47565,1.5669,-0.0222844,0,0,0,1.571,-1.478,0.187
 20:59:02.459,-1.47592,1.56683,-0.0222829,0,0,0,1.571,-1.478,0.187
 20:59:02.469,-1.47618,1.56677,-0.0222813,0,0,0,1.571,-1.478,0.187
 20:59:02.479,-1.47588,1.56673,-0.0222801,0,0,0,1.571,-1.478,0.187
 20:59:02.489,-1.47557,1.56725,-0.0222935,0,0,0,1.571,-1.478,0.187
 20:59:02.498,-1.47582,1.56717,-0.0222914,0,0,0,1.571,-1.478,0.187
 20:59:02.508,-1.47548,1.56707,-0.022289,0,0,0,1.571,-1.478,0.187
 20:59:02.519,-1.47574,1.56757,-0.0223018,0,0,0,1.571,-1.478,0.187
 20:59:02.529,-1.47597,1.56747,-0.0222992,0,0,0,1.571,-1.478,0.187
 20:59:02.539,-1.47619,1.56736,-0.0222963,0,0,0,1.571,-1.478,0.187
 20:59:02.548,-1.47585,1.56668,-0.0222789,0,0,0,1.571,-1.478,0.187
 20:59:02.558,-1.47608,1.56659,-0.0222766,0,0,0,1.571,-1.478,0.187
 20:59:02.569,-1.47635,1.56653,-0.0222751,0,0,0,1.571,-1.478,0.187
 20:59:02.579,-1.47659,1.56646,-0.0222732,0,0,0,1.571,-1.478,0.187
 20:59:02.589,-1.47682,1.56695,-0.0222858,0,0,0,1.571,-1.478,0.187
 20:59:02.599,-1.47648,1.56745,-0.0222987,0,0,0,1.571,-1.483,0.187
 20:59:02.609,-1.47674,1.56796,-0.0223118,0,0,0,1.571,-1.483,0.187
 20:59:02.619,-1.47641,1.56845,-0.0223244,0,0,0,1.571,-1.483,0.187
 20:59:02.629,-1.47608,1.56836,-0.022322,0,0,0,1.571,-1.483,0.187
 20:59:02.639,-1.47692,1.56828,-0.0223201,0,0,0,1.571,-1.483,0.187
 20:59:02.649,-1.47659,1.5682,-0.0223182,0,0,0,1.571,-1.483,0.187
 20:59:02.659,-1.47629,1.56757,-0.0223017,0,0,0,1.571,-1.483,0.187
 20:59:02.669,-1.47657,1.56752,-0.0223004,0,0,0,1.571,-1.483,0.187
 20:59:02.679,-1.47625,1.56745,-0.0222987,0,0,0,1.571,-1.483,0.187
 20:59:02.689,-1.47652,1.5674,-0.0222973,0,0,0,1.571,-1.483,0.187
 20:59:02.699,-1.47678,1.56733,-0.0222956,0,0,0,1.571,-1.483,0.187
 20:59:02.709,-1.47645,1.56725,-0.0222935,0,0,0,1.571,-1.483,0.187
 20:59:02.719,-1.47612,1.56775,-0.0223063,0,0,0,1.571,-1.483,0.187
 20:59:02.729,-1.47577,1.56822,-0.0223186,0,0,0,1.571,-1.483,0.187
 20:59:02.739,-1.47543,1.56812,-0.0223158,0,0,0,1.571,-1.478,0.187
 20:59:02.749,-1.47511,1.5686,-0.0223284,0,0,0,1.571,-1.478,0.187
 20:59:02.759,-1.47418,1.56848,-0.0223252,0,0,0,1.571,-1.478,0.187
 20:59:02.769,-1.47444,1.56837,-0.0223224,0,0,0,1.571,-1.478,0.187
 20:59:02.779,-1.47412,1.56828,-0.02232,0,0,0,1.571,-1.478,0.187
 20:59:02.789,-1.47439,1.56819,-0.0223177,0,0,0,1.571,-1.478,0.187
 20:59:02.799,-1.47466,1.5681,-0.0223154,0,0,0,1.571,-1.478,0.187
 20:59:02.809,-1.47434,1.56858,-0.0223279,0,0,0,1.571,-1.478,0.187
 20:59:02.819,-1.47461,1.56849,-0.0223255,0,0,0,1.571,-1.478,0.187
 20:59:02.829,-1.47429,1.5684,-0.0223231,0,0,0,1.571,-1.478,0.187
 20:59:02.839,-1.47456,1.56888,-0.0223356,0,0,0,1.571,-1.478,0.187
 20:59:02.849,-1.47425,1.56879,-0.0223331,0,0,0,1.571,-1.478,0.187
 20:59:02.860,-1.47451,1.56869,-0.0223306,0,0,0,1.571,-1.478,0.187
 20:59:02.870,-1.47478,1.5686,-0.0223282,0,0,0,1.571,-1.478,0.187
 20:59:02.879,-1.47505,1.56909,-0.022341,0,0,0,1.571,-1.478,0.187
 20:59:02.889,-1.47475,1.56901,-0.0223389,0,0,0,1.571,-1.478,0.187
 20:59:02.899,-1.47503,1.56893,-0.0223368,0,0,0,1.571,-1.478,0.187
 20:59:02.909,-1.47474,1.56828,-0.0223202,0,0,0,1.571,-1.478,0.187
 20:59:02.919,-1.47502,1.56763,-0.0223034,0,0,0,1.571,-1.478,0.187
 20:59:02.929,-1.47529,1.56756,-0.0223016,0,0,0,1.571,-1.478,0.187
 20:59:02.940,-1.47558,1.56809,-0.0223152,0,0,0,1.571,-1.478,0.187
 20:59:02.950,-1.47642,1.56859,-0.0223282,0,0,0,1.571,-1.478,0.187
 20:59:02.960,-1.47609,1.5685,-0.0223257,0,0,0,1.571,-1.478,0.187
 20:59:02.969,-1.47576,1.56841,-0.0223233,0,0,0,1.571,-1.483,0.187
 20:59:02.979,-1.47601,1.56831,-0.022321,0,0,0,1.571,-1.478,0.187
 20:59:02.990,-1.47567,1.56878,-0.0223331,0,0,0,1.571,-1.478,0.187
 20:59:03.000,-1.47534,1.56927,-0.0223455,0,0,0,1.571,-1.478,0.187
 20:59:03.010,-1.47502,1.56916,-0.0223429,0,0,0,1.577,-1.478,0.187
 20:59:03.019,-1.47528,1.56906,-0.0223403,0,0,0,1.577,-1.478,0.187
 20:59:03.029,-1.47554,1.56954,-0.0223526,0,0,0,1.577,-1.478,0.187
 20:59:03.039,-1.4752,1.56942,-0.0223495,0,0,0,1.577,-1.478,0.187
 20:59:03.049,-1.4743,1.56932,-0.0223469,0,0,0,1.577,-1.478,0.187
 20:59:03.059,-1.47399,1.56922,-0.0223443,0,0,0,1.577,-1.478,0.187
 20:59:03.069,-1.47368,1.56854,-0.0223269,0,0,0,1.577,-1.478,0.187
 20:59:03.080,-1.47396,1.56845,-0.0223245,0,0,0,1.571,-1.478,0.187
 20:59:03.089,-1.47421,1.56834,-0.0223217,0,0,0,1.571,-1.478,0.187
 20:59:03.099,-1.47389,1.56823,-0.0223189,0,0,0,1.571,-1.478,0.187
 20:59:03.110,-1.47357,1.56813,-0.0223162,0,0,0,1.571,-1.478,0.187
 20:59:03.120,-1.47326,1.56804,-0.0223139,0,0,0,1.571,-1.478,0.187
 20:59:03.129,-1.47355,1.56797,-0.022312,0,0,0,1.571,-1.478,0.187
 20:59:03.140,-1.47328,1.56791,-0.0223106,0,0,0,1.571,-1.478,0.187
 20:59:03.150,-1.47359,1.56785,-0.0223092,0,0,0,1.571,-1.478,0.187
 20:59:03.159,-1.4733,1.56778,-0.0223073,0,0,0,1.571,-1.478,0.187
 20:59:03.169,-1.47359,1.56771,-0.0223055,0,0,0,1.571,-1.478,0.187
 20:59:03.179,-1.47328,1.56763,-0.0223033,0,0,0,1.571,-1.478,0.187
 20:59:03.189,-1.47356,1.56754,-0.0223012,0,0,0,1.571,-1.478,0.187
 20:59:03.200,-1.47382,1.56802,-0.0223135,0,0,0,1.571,-1.478,0.187
 20:59:03.210,-1.4735,1.56792,-0.0223108,0,0,0,1.571,-1.478,0.187
 20:59:03.220,-1.47377,1.56725,-0.0222937,0,0,0,1.571,-1.478,0.187
 20:59:03.230,-1.47345,1.56658,-0.0222764,0,0,0,1.571,-1.478,0.187
 20:59:03.239,-1.47314,1.56649,-0.0222741,0,0,0,1.571,-1.478,0.187
 20:59:03.249,-1.4734,1.5664,-0.0222718,0,0,0,1.571,-1.478,0.187
 20:59:03.259,-1.47366,1.56689,-0.0222844,0,0,0,1.571,-1.478,0.187
 20:59:03.269,-1.47393,1.56681,-0.0222824,0,0,0,1.571,-1.478,0.187
 20:59:03.280,-1.4742,1.56674,-0.0222804,0,0,0,1.571,-1.478,0.187
 20:59:03.289,-1.47445,1.56722,-0.0222929,0,0,0,1.571,-1.478,0.187
 20:59:03.300,-1.47472,1.56714,-0.0222909,0,0,0,1.571,-1.478,0.187
 20:59:03.310,-1.47496,1.56705,-0.0222884,0,0,0,1.571,-1.478,0.187
 20:59:03.320,-1.47463,1.56638,-0.0222711,0,0,0,1.571,-1.478,0.187
 20:59:03.330,-1.4749,1.5663,-0.0222693,0,0,0,1.571,-1.478,0.187
 20:59:03.340,-1.47458,1.56623,-0.0222675,0,0,0,1.571,-1.478,0.187
 20:59:03.350,-1.47425,1.56615,-0.0222652,0,0,0,1.571,-1.478,0.187
 20:59:03.360,-1.47509,1.56665,-0.0222783,0,0,0,1.571,-1.478,0.187
 20:59:03.370,-1.47535,1.56658,-0.0222764,0,0,0,1.571,-1.478,0.187
 20:59:03.379,-1.47502,1.56649,-0.0222741,0,0,0,1.571,-1.478,0.187
 20:59:03.390,-1.47527,1.56699,-0.0222871,0,0,0,1.571,-1.478,0.187
 20:59:03.400,-1.47553,1.56692,-0.0222851,0,0,0,1.571,-1.478,0.187
 20:59:03.410,-1.47578,1.56684,-0.0222831,0,0,0,1.571,-1.478,0.187
 20:59:03.420,-1.47544,1.56617,-0.0222658,0,0,0,1.571,-1.478,0.187
 20:59:03.430,-1.47511,1.56666,-0.0222785,0,0,0,1.571,-1.478,0.187
 20:59:03.440,-1.47535,1.56715,-0.022291,0,0,0,1.571,-1.478,0.187
 20:59:03.450,-1.47561,1.56707,-0.022289,0,0,0,1.571,-1.478,0.187
 20:59:03.460,-1.47586,1.56699,-0.0222869,0,0,0,1.571,-1.478,0.187
 20:59:03.470,-1.47553,1.56749,-0.0222998,0,0,0,1.571,-1.478,0.187
 20:59:03.480,-1.4758,1.56742,-0.0222981,0,0,0,1.571,-1.478,0.187
 20:59:03.490,-1.47605,1.56734,-0.0222959,0,0,0,1.571,-1.478,0.187
 20:59:03.500,-1.4763,1.56783,-0.0223087,0,0,0,1.571,-1.478,0.187
 20:59:03.510,-1.47597,1.56833,-0.0223213,0,0,0,1.571,-1.478,0.187
 20:59:03.520,-1.47622,1.56881,-0.0223339,0,0,0,1.571,-1.478,0.187
 20:59:03.530,-1.47587,1.5687,-0.022331,0,0,0,1.571,-1.478,0.187
 20:59:03.540,-1.47553,1.56859,-0.0223281,0,0,0,1.571,-1.478,0.187
 20:59:03.550,-1.47521,1.56849,-0.0223257,0,0,0,1.571,-1.478,0.187
 20:59:03.560,-1.47547,1.56898,-0.0223382,0,0,0,1.577,-1.478,0.187
 20:59:03.569,-1.47572,1.56888,-0.0223356,0,0,0,1.577,-1.478,0.187
 20:59:03.580,-1.47596,1.56877,-0.0223327,0,0,0,1.577,-1.478,0.187
 20:59:03.590,-1.47621,1.56867,-0.0223303,0,0,0,1.577,-1.478,0.187
 20:59:03.600,-1.47591,1.56861,-0.0223286,0,0,0,1.577,-1.478,0.187
 20:59:03.610,-1.47617,1.56853,-0.0223266,0,0,0,1.577,-1.478,0.187
 20:59:03.620,-1.47643,1.56845,-0.0223246,0,0,0,1.577,-1.478,0.187
 20:59:03.630,-1.47669,1.56838,-0.0223226,0,0,0,1.577,-1.478,0.187
 20:59:03.640,-1.47695,1.5683,-0.0223207,0,0,0,1.577,-1.483,0.187
 20:59:03.650,-1.47721,1.56822,-0.0223187,0,0,0,1.577,-1.483,0.187
 20:59:03.660,-1.47744,1.56813,-0.0223164,0,0,0,1.577,-1.483,0.187
 20:59:03.670,-1.47768,1.56804,-0.0223141,0,0,0,1.577,-1.483,0.187
 20:59:03.680,-1.47733,1.56796,-0.0223118,0,0,0,1.571,-1.483,0.187
 20:59:03.690,-1.47699,1.56787,-0.0223096,0,0,0,1.571,-1.483,0.187
 20:59:03.700,-1.47665,1.56778,-0.0223073,0,0,0,1.571,-1.483,0.187
 20:59:03.710,-1.4769,1.56827,-0.02232,0,0,0,1.577,-1.483,0.187
 20:59:03.720,-1.47712,1.56874,-0.0223321,0,0,0,1.577,-1.483,0.187
 20:59:03.730,-1.47677,1.56863,-0.0223292,0,0,0,1.577,-1.483,0.187
 20:59:03.740,-1.47699,1.56852,-0.0223264,0,0,0,1.577,-1.483,0.187
 20:59:03.750,-1.47725,1.56844,-0.0223244,0,0,0,1.577,-1.483,0.187
 20:59:03.761,-1.47691,1.56893,-0.0223369,0,0,0,1.577,-1.483,0.187
 20:59:03.770,-1.47715,1.56883,-0.0223344,0,0,0,1.577,-1.483,0.187
 20:59:03.780,-1.47679,1.5693,-0.0223464,0,0,0,1.577,-1.483,0.187
 20:59:03.791,-1.47702,1.56918,-0.0223433,0,0,0,1.577,-1.483,0.187
 20:59:03.801,-1.47667,1.56964,-0.0223552,0,0,0,1.577,-1.483,0.187
 20:59:03.810,-1.47689,1.56952,-0.0223521,0,0,0,1.577,-1.478,0.187
 20:59:03.820,-1.47654,1.5694,-0.0223491,0,0,0,1.577,-1.478,0.187
 20:59:03.830,-1.47677,1.56928,-0.022346,0,0,0,1.577,-1.478,0.187
 20:59:03.840,-1.47701,1.56918,-0.0223434,0,0,0,1.577,-1.478,0.187
 20:59:03.851,-1.47666,1.56964,-0.0223553,0,0,0,1.577,-1.478,0.187
 20:59:03.861,-1.47689,1.56952,-0.0223522,0,0,0,1.577,-1.478,0.187
 20:59:03.871,-1.47711,1.5694,-0.0223491,0,0,0,1.577,-1.478,0.187
 20:59:03.880,-1.47734,1.56929,-0.0223461,0,0,0,1.577,-1.478,0.187
 20:59:03.890,-1.47699,1.56861,-0.0223286,0,0,0,1.577,-1.483,0.187
 20:59:03.900,-1.47781,1.56909,-0.0223411,0,0,0,1.577,-1.483,0.187
 20:59:03.911,-1.47746,1.56899,-0.0223385,0,0,0,1.577,-1.483,0.187
 20:59:03.921,-1.47771,1.56891,-0.0223364,0,0,0,1.577,-1.483,0.187
 20:59:03.931,-1.47738,1.56883,-0.0223343,0,0,0,1.577,-1.483,0.187
 20:59:03.940,-1.47762,1.56873,-0.0223318,0,0,0,1.577,-1.483,0.187
 20:59:03.950,-1.47729,1.56865,-0.0223298,0,0,0,1.577,-1.483,0.187
 20:59:03.961,-1.47812,1.56857,-0.0223277,0,0,0,1.577,-1.483,0.187
 20:59:03.971,-1.47778,1.5685,-0.0223257,0,0,0,1.577,-1.483,0.187
 20:59:03.981,-1.47803,1.56842,-0.0223237,0,0,0,1.577,-1.483,0.187
 20:59:03.990,-1.4777,1.56834,-0.0223218,0,0,0,1.577,-1.483,0.187
 20:59:04.000,-1.47737,1.56827,-0.0223198,0,0,0,1.577,-1.483,0.187
 20:59:04.011,-1.47704,1.56819,-0.0223179,0,0,0,1.577,-1.483,0.187
 20:59:04.021,-1.4767,1.5681,-0.0223155,0,0,0,1.577,-1.483,0.187
 20:59:04.030,-1.47694,1.56801,-0.0223132,0,0,0,1.577,-1.483,0.187
 20:59:04.040,-1.47661,1.56792,-0.022311,0,0,0,1.577,-1.483,0.187
 20:59:04.051,-1.47741,1.56782,-0.0223083,0,0,0,1.577,-1.483,0.187
 20:59:04.060,-1.47707,1.56773,-0.0223061,0,0,0,1.571,-1.483,0.187
 20:59:04.070,-1.47671,1.56763,-0.0223035,0,0,0,1.571,-1.483,0.187
 20:59:04.080,-1.47637,1.56811,-0.0223158,0,0,0,1.571,-1.483,0.187
 20:59:04.090,-1.4766,1.568,-0.0223131,0,0,0,1.577,-1.483,0.187
 20:59:04.101,-1.47625,1.5679,-0.0223104,0,0,0,1.577,-1.483,0.187
 20:59:04.110,-1.47592,1.56839,-0.022323,0,0,0,1.577,-1.483,0.187
 20:59:04.121,-1.47559,1.5683,-0.0223206,0,0,0,1.577,-1.483,0.187
 20:59:04.131,-1.47584,1.56879,-0.0223332,0,0,0,1.577,-1.478,0.187
 20:59:04.140,-1.47609,1.56869,-0.0223307,0,0,0,1.577,-1.478,0.187
 20:59:04.151,-1.47634,1.56859,-0.0223282,0,0,0,1.577,-1.483,0.187
 20:59:04.161,-1.47659,1.5685,-0.0223258,0,0,0,1.577,-1.483,0.187
 20:59:04.171,-1.47624,1.56839,-0.022323,0,0,0,1.577,-1.483,0.187
 20:59:04.181,-1.47648,1.56888,-0.0223355,0,0,0,1.577,-1.483,0.187
 20:59:04.191,-1.47615,1.56878,-0.022333,0,0,0,1.577,-1.483,0.187
 20:59:04.201,-1.47582,1.56926,-0.0223454,0,0,0,1.577,-1.483,0.187
 20:59:04.211,-1.47551,1.56918,-0.0223432,0,0,0,1.577,-1.483,0.187
 20:59:04.221,-1.47519,1.56908,-0.0223407,0,0,0,1.577,-1.483,0.187
 20:59:04.231,-1.47429,1.56898,-0.0223381,0,0,0,1.577,-1.478,0.187
 20:59:04.241,-1.47454,1.56886,-0.0223352,0,0,0,1.577,-1.478,0.187
 20:59:04.251,-1.47479,1.56933,-0.0223471,0,0,0,1.577,-1.478,0.187
 20:59:04.261,-1.47505,1.5698,-0.0223594,0,0,0,1.577,-1.478,0.187
 20:59:04.271,-1.47587,1.56968,-0.0223563,0,0,0,1.577,-1.478,0.187
 20:59:04.281,-1.47611,1.56956,-0.0223531,0,0,0,1.577,-1.478,0.187
 20:59:04.291,-1.47635,1.57003,-0.0223653,0,0,0,1.577,-1.483,0.187
 20:59:04.301,-1.47602,1.56993,-0.0223626,0,0,0,1.577,-1.483,0.187
 20:59:04.311,-1.47627,1.5704,-0.0223747,0,0,0,1.577,-1.483,0.187
 20:59:04.321,-1.47653,1.5703,-0.0223722,0,0,0,1.577,-1.483,0.187
 20:59:04.331,-1.47678,1.57019,-0.0223693,0,0,0,1.577,-1.483,0.187
 20:59:04.341,-1.47644,1.57008,-0.0223665,0,0,0,1.577,-1.483,0.187
 20:59:04.351,-1.47611,1.56997,-0.0223637,0,0,0,1.577,-1.483,0.187
 20:59:04.361,-1.47578,1.56986,-0.0223609,0,0,0,1.577,-1.483,0.187
 20:59:04.371,-1.47545,1.56976,-0.0223581,0,0,0,1.577,-1.483,0.187
 20:59:04.382,-1.47515,1.56967,-0.0223558,0,0,0,1.577,-1.483,0.187
 20:59:04.392,-1.47542,1.56958,-0.0223535,0,0,0,1.577,-1.478,0.187
 20:59:04.402,-1.47567,1.56947,-0.0223509,0,0,0,1.571,-1.478,0.187
 20:59:04.411,-1.47535,1.56937,-0.0223482,0,0,0,1.571,-1.483,0.187
 20:59:04.421,-1.47561,1.56927,-0.0223456,0,0,0,1.571,-1.478,0.187
 20:59:04.431,-1.47586,1.56859,-0.0223281,0,0,0,1.571,-1.483,0.187
 20:59:04.442,-1.4767,1.56851,-0.0223261,0,0,0,1.571,-1.483,0.187
 20:59:04.451,-1.4764,1.56903,-0.0223394,0,0,0,1.571,-1.483,0.187
 20:59:04.461,-1.47667,1.56954,-0.0223526,0,0,0,1.571,-1.483,0.187
 20:59:04.471,-1.47635,1.56945,-0.0223504,0,0,0,1.571,-1.483,0.187
 20:59:04.481,-1.47719,1.56937,-0.0223481,0,0,0,1.571,-1.483,0.187
 20:59:04.491,-1.47743,1.56926,-0.0223455,0,0,0,1.571,-1.483,0.187
 20:59:04.501,-1.47769,1.56862,-0.0223288,0,0,0,1.571,-1.483,0.187
 20:59:04.511,-1.47794,1.56796,-0.0223119,0,0,0,1.571,-1.483,0.187
 20:59:04.521,-1.47761,1.56847,-0.0223249,0,0,0,1.571,-1.483,0.187
 20:59:04.531,-1.47728,1.56839,-0.0223229,0,0,0,1.571,-1.483,0.187
 20:59:04.542,-1.47694,1.5683,-0.0223206,0,0,0,1.571,-1.483,0.187
 20:59:04.552,-1.47718,1.56821,-0.0223182,0,0,0,1.571,-1.483,0.187
 20:59:04.562,-1.47743,1.56813,-0.0223163,0,0,0,1.571,-1.483,0.187
 20:59:04.571,-1.47712,1.56807,-0.0223148,0,0,0,1.571,-1.483,0.187
 20:59:04.581,-1.47738,1.56802,-0.0223133,0,0,0,1.571,-1.483,0.187
 20:59:04.591,-1.47706,1.56852,-0.0223263,0,0,0,1.571,-1.483,0.187
 20:59:04.601,-1.47789,1.56902,-0.0223392,0,0,0,1.571,-1.483,0.187
 20:59:04.612,-1.47754,1.56892,-0.0223367,0,0,0,1.571,-1.483,0.187
 20:59:04.621,-1.47774,1.56879,-0.0223334,0,0,0,1.571,-1.483,0.187
 20:59:04.631,-1.47738,1.56868,-0.0223305,0,0,0,1.571,-1.483,0.187
 20:59:04.641,-1.47703,1.56857,-0.0223277,0,0,0,1.571,-1.483,0.187
 20:59:04.652,-1.47668,1.56846,-0.0223248,0,0,0,1.571,-1.483,0.187
 20:59:04.662,-1.47634,1.56837,-0.0223224,0,0,0,1.571,-1.483,0.187
 20:59:04.671,-1.47657,1.56826,-0.0223197,0,0,0,1.571,-1.483,0.187
 20:59:04.681,-1.47624,1.56759,-0.0223025,0,0,0,1.571,-1.483,0.187
 20:59:04.691,-1.47645,1.56748,-0.0222995,0,0,0,1.571,-1.483,0.187
 20:59:04.701,-1.47611,1.56738,-0.022297,0,0,0,1.571,-1.483,0.187
 20:59:04.711,-1.47576,1.56728,-0.0222944,0,0,0,1.571,-1.483,0.187
 20:59:04.721,-1.47544,1.56778,-0.0223072,0,0,0,1.571,-1.483,0.187
 20:59:04.731,-1.47512,1.56827,-0.0223199,0,0,0,1.571,-1.483,0.187
 20:59:04.741,-1.4748,1.56818,-0.0223175,0,0,0,1.571,-1.478,0.187
 20:59:04.751,-1.47448,1.56809,-0.0223152,0,0,0,1.571,-1.478,0.187
 20:59:04.761,-1.47475,1.568,-0.0223129,0,0,0,1.571,-1.478,0.187
 20:59:04.771,-1.47444,1.56793,-0.0223111,0,0,0,1.571,-1.478,0.187
 20:59:04.782,-1.47415,1.56786,-0.0223092,0,0,0,1.571,-1.478,0.187
 20:59:04.791,-1.47326,1.56719,-0.0222922,0,0,0,1.571,-1.478,0.187
 20:59:04.801,-1.4741,1.56767,-0.0223045,0,0,0,1.571,-1.478,0.187
 20:59:04.812,-1.47377,1.56757,-0.0223019,0,0,0,1.571,-1.478,0.187
 20:59:04.821,-1.47405,1.56749,-0.0222998,0,0,0,1.571,-1.478,0.187
 20:59:04.831,-1.47431,1.56741,-0.0222976,0,0,0,1.571,-1.478,0.187
 20:59:04.842,-1.47457,1.56731,-0.0222951,0,0,0,1.571,-1.478,0.187
 20:59:04.852,-1.47424,1.56721,-0.0222926,0,0,0,1.571,-1.478,0.187
 20:59:04.862,-1.47393,1.56713,-0.0222906,0,0,0,1.571,-1.478,0.187
 20:59:04.872,-1.4742,1.56705,-0.0222885,0,0,0,1.571,-1.478,0.187
 20:59:04.882,-1.47504,1.56697,-0.0222865,0,0,0,1.571,-1.478,0.187
 20:59:04.891,-1.47472,1.5669,-0.0222845,0,0,0,1.571,-1.478,0.187
 20:59:04.901,-1.47499,1.56682,-0.0222825,0,0,0,1.571,-1.478,0.187
 20:59:04.911,-1.47524,1.56674,-0.0222806,0,0,0,1.571,-1.478,0.187
 20:59:04.921,-1.47549,1.56665,-0.0222782,0,0,0,1.571,-1.478,0.187
 20:59:04.931,-1.47518,1.56659,-0.0222767,0,0,0,1.571,-1.483,0.187
 20:59:04.941,-1.47544,1.56652,-0.0222748,0,0,0,1.571,-1.478,0.187
 20:59:04.952,-1.47511,1.56587,-0.022258,0,0,0,1.571,-1.483,0.187
 20:59:04.962,-1.47537,1.5658,-0.0222563,0,0,0,1.571,-1.478,0.187
 20:59:04.972,-1.47506,1.56575,-0.022255,0,0,0,1.571,-1.478,0.187
 20:59:04.982,-1.47475,1.56569,-0.0222533,0,0,0,1.571,-1.478,0.187
 20:59:04.992,-1.47557,1.56618,-0.0222661,0,0,0,1.571,-1.478,0.187
 20:59:05.002,-1.47524,1.56611,-0.0222643,0,0,0,1.571,-1.483,0.187
 20:59:05.012,-1.47606,1.5666,-0.022277,0,0,0,1.571,-1.483,0.187
 20:59:05.022,-1.47572,1.56709,-0.0222895,0,0,0,1.571,-1.483,0.187
 20:59:05.032,-1.47538,1.567,-0.0222871,0,0,0,1.571,-1.483,0.187
 20:59:05.042,-1.47562,1.5669,-0.0222847,0,0,0,1.571,-1.483,0.187
 20:59:05.053,-1.47586,1.56681,-0.0222823,0,0,0,1.571,-1.483,0.187
 20:59:05.062,-1.47612,1.56675,-0.0222807,0,0,0,1.571,-1.483,0.187
 20:59:05.072,-1.47523,1.56669,-0.0222792,0,0,0,1.571,-1.483,0.187
 20:59:05.082,-1.4749,1.5666,-0.0222768,0,0,0,1.571,-1.483,0.187
 20:59:05.092,-1.47458,1.5671,-0.0222898,0,0,0,1.571,-1.478,0.187
 20:59:05.102,-1.47369,1.5676,-0.0223026,0,0,0,1.571,-1.478,0.187
 20:59:05.112,-1.47454,1.56809,-0.0223153,0,0,0,1.571,-1.478,0.187
 20:59:05.122,-1.4748,1.56858,-0.0223278,0,0,0,1.571,-1.478,0.187
 20:59:05.132,-1.4745,1.56908,-0.0223407,0,0,0,1.571,-1.478,0.187
 20:59:05.142,-1.47593,1.56957,-0.0223534,0,0,0,1.571,-1.478,0.187
 20:59:05.152,-1.47504,1.56949,-0.0223512,0,0,0,1.571,-1.483,0.187
 20:59:05.162,-1.4753,1.56938,-0.0223485,0,0,0,1.571,-1.478,0.187
 20:59:05.172,-1.4744,1.56928,-0.0223459,0,0,0,1.571,-1.478,0.187
 20:59:05.182,-1.47523,1.56974,-0.0223577,0,0,0,1.571,-1.478,0.187
 20:59:05.192,-1.47432,1.56962,-0.0223546,0,0,0,1.571,-1.478,0.187
 20:59:05.202,-1.47399,1.57008,-0.0223664,0,0,0,1.571,-1.478,0.187
 20:59:05.212,-1.47367,1.56995,-0.0223631,0,0,0,1.571,-1.478,0.187
 20:59:05.222,-1.47394,1.56984,-0.0223604,0,0,0,1.571,-1.478,0.187
 20:59:05.232,-1.47537,1.56974,-0.0223576,0,0,0,1.571,-1.478,0.187
 20:59:05.242,-1.47333,1.56965,-0.0223553,0,0,0,1.571,-1.478,0.187
 20:59:05.252,-1.46946,1.57069,-0.02169,0,0,0,1.571,-1.478,0.187
 20:59:05.262,-1.46803,1.57056,-0.0216866,0,0,0,1.577,-1.472,0.187
 20:59:05.272,-1.46604,1.57101,-0.0216981,0,0,0,1.577,-1.472,0.187
 20:59:05.283,-1.46703,1.57085,-0.0217598,0,0,0,1.577,-1.472,0.187
 20:59:05.293,-1.46979,1.57009,-0.0218551,0,0,0,1.571,-1.472,0.187
 20:59:05.303,-1.47197,1.57056,-0.0219507,0,0,0,1.577,-1.478,0.187
 20:59:05.313,-1.47649,1.57042,-0.0214535,0,0,0,1.577,-1.478,0.187
 20:59:05.322,-1.47918,1.56971,-0.0209081,0,0,0,1.571,-1.483,0.187
 20:59:05.332,-1.4806,1.57018,-0.0209537,0,0,0,1.571,-1.483,0.187
 20:59:05.342,-1.48203,1.57009,-0.0209847,0,0,0,1.571,-1.483,0.187
 20:59:05.352,-1.47992,1.56941,-0.0209674,0,0,0,1.571,-1.489,0.187
 20:59:05.362,-1.4784,1.56931,-0.0209647,0,0,0,1.571,-1.483,0.187
 20:59:05.372,-1.47753,1.56918,-0.0210106,0,0,0,1.571,-1.483,0.187
 20:59:05.383,-1.4814,1.56844,-0.0205134,0,0,0,1.571,-1.483,0.192
 20:59:05.392,-1.48882,1.56654,-0.0200688,0,0,0,1.571,-1.489,0.192
 20:59:05.402,-1.49616,1.56466,-0.0196245,0,0,0,1.571,-1.494,0.192
 20:59:05.412,-1.50103,1.56338,-0.0191299,0,0,0,1.566,-1.505,0.192
 20:59:05.422,-1.50232,1.56214,-0.0192124,0,0,0,1.566,-1.505,0.192
 20:59:05.432,-1.50237,1.56267,-0.01865,0,0,0,1.566,-1.505,0.192
 20:59:05.443,-1.50477,1.56318,-0.0181203,0,0,0,1.566,-1.505,0.192
 20:59:05.452,-1.50715,1.56196,-0.0175451,0,0,0,1.566,-1.511,0.192
 20:59:05.462,-1.50889,1.56134,-0.0175787,0,0,0,1.566,-1.511,0.192
 20:59:05.472,-1.50827,1.5613,-0.0176109,0,0,0,1.566,-1.511,0.192
 20:59:05.482,-1.50649,1.56062,-0.0176583,0,0,0,1.566,-1.511,0.192
 20:59:05.492,-1.51125,1.55936,-0.017806,0,0,0,1.56,-1.511,0.192
 20:59:05.502,-1.51661,1.55695,-0.0179726,0,0,0,1.56,-1.516,0.192
 20:59:05.512,-1.51727,1.55628,-0.0175429,0,0,0,1.56,-1.522,0.192
 20:59:05.523,-1.51691,1.55675,-0.0172423,0,0,0,1.56,-1.527,0.192
 20:59:05.532,-1.52084,1.5571,-0.0171364,0,0,0,1.56,-1.527,0.192
 20:59:05.542,-1.5435,1.55503,-0.0172473,0,0,0,1.56,-1.538,0.192
 20:59:05.553,-1.57079,1.5454,-0.0135938,0,0,0,1.549,-1.56,0.198
 20:59:05.563,-1.59505,1.54339,0.0018104,0,0,0,1.549,-1.582,0.209
 20:59:05.572,-1.61684,1.53735,0.0144288,0,0,0,1.544,-1.604,0.22
 20:59:05.582,-1.6314,1.53212,0.0215467,0,0,0,1.538,-1.626,0.231
 20:59:05.592,-1.6392,1.53114,0.0237502,0,0,0,1.533,-1.637,0.236
 20:59:05.602,-1.64288,1.53012,0.025311,0,0,0,1.533,-1.648,0.236
 20:59:05.612,-1.64428,1.53207,0.0286495,0,0,0,1.533,-1.648,0.236
 20:59:05.623,-1.64216,1.53746,0.0350545,0,0,0,1.538,-1.648,0.242
 20:59:05.633,-1.62042,1.54524,0.047414,0,0,0,1.549,-1.631,0.258
 20:59:05.642,-1.5808,1.55411,0.067626,0,0,0,1.56,-1.593,0.275
 20:59:05.652,-1.56412,1.55683,0.0915678,0,0,0,1.56,-1.571,0.297
 20:59:05.662,-1.57256,1.56224,0.121127,0,0,0,1.566,-1.566,0.324
 20:59:05.672,-1.60188,1.56176,0.153647,0,0,0,1.571,-1.577,0.357
 20:59:05.682,-1.63475,1.55907,0.181595,0,0,0,1.566,-1.604,0.385
 20:59:05.693,-1.68088,1.5547,0.194257,0,0,0,1.555,-1.648,0.401
 20:59:05.703,-1.72072,1.54554,0.183809,0,0,0,1.544,-1.692,0.396
 20:59:05.712,-1.73745,1.53282,0.146027,0,0,0,1.533,-1.725,0.363
 20:59:05.723,-1.68748,1.52195,0.0958157,0,0,0,1.522,-1.703,0.313
 20:59:05.733,-1.54724,1.52472,0.0583893,0,0,0,1.522,-1.599,0.275
 20:59:05.743,-1.35224,1.55336,0.0524486,0,0,0,1.549,-1.412,0.264
 20:59:05.753,-1.13389,1.60096,0.0803544,0,0,0,1.593,-1.181,0.286
 20:59:05.763,-0.912558,1.66025,0.122827,0,0,0,1.648,-0.961,0.324
 20:59:05.773,-0.689047,1.75088,0.165688,0,0,0,1.736,-0.753,0.368
 20:59:05.783,-0.490962,1.86617,0.21187,0,0,0,1.846,-0.56,0.412
 20:59:05.793,-0.34622,1.99603,0.268171,0,0,0,1.978,-0.401,0.467
 20:59:05.803,-0.249769,2.13047,0.339091,0,0,0,2.115,-0.286,0.533
 20:59:05.813,-0.188116,2.25385,0.422035,0,0,0,2.241,-0.209,0.615
 20:59:05.823,-0.173819,2.34913,0.510657,0,0,0,2.346,-0.165,0.703
 20:59:05.833,-0.207267,2.41046,0.596498,0,0,0,2.411,-0.165,0.791
 20:59:05.843,-0.278842,2.43804,0.667797,0,0,0,2.444,-0.209,0.862
 20:59:05.853,-0.35092,2.43368,0.709202,0,0,0,2.444,-0.275,0.906
 20:59:05.863,-0.401799,2.3998,0.709651,0,0,0,2.406,-0.335,0.912
 20:59:05.874,-0.430078,2.33421,0.653065,0,0,0,2.335,-0.39,0.857
 20:59:05.883,-0.431773,2.23554,0.539099,0,0,0,2.236,-0.445,0.747
 20:59:05.893,-0.415721,2.11238,0.393546,0,0,0,2.115,-0.472,0.604
 20:59:05.903,-0.395542,1.97519,0.261061,0,0,0,1.978,-0.483,0.472
 20:59:05.913,-0.374177,1.83983,0.180139,0,0,0,1.846,-0.467,0.385
 20:59:05.923,-0.379176,1.72995,0.170171,0,0,0,1.736,-0.456,0.368
 20:59:05.933,-0.442269,1.65552,0.227253,0,0,0,1.664,-0.472,0.417
 20:59:05.943,-0.562585,1.60996,0.323515,0,0,0,1.615,-0.549,0.511
 20:59:05.953,-0.723226,1.57848,0.417367,0,0,0,1.582,-0.67,0.604
 20:59:05.963,-0.859615,1.54387,0.475291,0,0,0,1.544,-0.797,0.665
 20:59:05.973,-0.91047,1.50201,0.479739,0,0,0,1.5,-0.879,0.676
 20:59:05.983,-0.880782,1.45812,0.428263,0,0,0,1.456,-0.884,0.626
 20:59:05.994,-0.791601,1.42404,0.336542,0,0,0,1.423,-0.84,0.538
 20:59:06.004,-0.673604,1.40893,0.23436,0,0,0,1.406,-0.753,0.439
 20:59:06.013,-0.564498,1.41991,0.157701,0,0,0,1.412,-0.659,0.357
 20:59:06.024,-0.497423,1.45758,0.137408,0,0,0,1.45,-0.577,0.335
 20:59:06.033,-0.48292,1.5101,0.181008,0,0,0,1.5,-0.533,0.368
 20:59:06.044,-0.52064,1.5626,0.264779,0,0,0,1.555,-0.533,0.45
 20:59:06.054,-0.602336,1.60147,0.353356,0,0,0,1.593,-0.593,0.538
 20:59:06.063,-0.697069,1.6187,0.418103,0,0,0,1.609,-0.676,0.604
 20:59:06.074,-0.7802,1.61633,0.439418,0,0,0,1.609,-0.753,0.632
 20:59:06.084,-0.82321,1.59585,0.416826,0,0,0,1.593,-0.802,0.615
 20:59:06.094,-0.772658,1.55861,0.361689,0,0,0,1.555,-0.78,0.56
 20:59:06.104,-0.614312,1.51483,0.293647,0,0,0,1.505,-0.659,0.494
 20:59:06.113,-0.409373,1.47562,0.224513,0,0,0,1.467,-0.472,0.423
 20:59:06.123,-0.218059,1.43908,0.15833,0,0,0,1.423,-0.291,0.357
 20:59:06.134,-0.0594143,1.40422,0.0989265,0,0,0,1.384,-0.132,0.297
 20:59:06.144,0.0862637,1.37091,0.0535991,0,0,0,1.351,0.005,0.253
 20:59:06.154,0.259009,1.33867,0.0274559,0,0,0,1.324,0.165,0.225
 20:59:06.164,0.456854,1.31015,0.0231812,0,0,0,1.296,0.363,0.214
 20:59:06.174,0.658699,1.28407,0.0424957,0,0,0,1.274,0.582,0.231
 20:59:06.183,0.847915,1.25025,0.0741746,0,0,0,1.241,0.807,0.264
 20:59:06.193,1.01119,1.19788,0.0849114,0,0,0,1.187,1.016,0.275
 20:59:06.203,1.21798,1.12442,0.0425042,0,0,0,1.11,1.225,0.236
 20:59:06.213,1.54237,1.04463,-0.0653915,0,0,0,1.022,1.511,0.132
 20:59:06.223,1.99519,0.966837,-0.230795,0,0,0,0.945,1.917,-0.022
 20:59:06.233,2.53864,0.88325,-0.435642,0,0,0,0.862,2.411,-0.22
 20:59:06.244,3.11193,0.791386,-0.648907,0,0,0,0.775,2.955,-0.434
 20:59:06.253,3.66887,0.688855,-0.835197,0,0,0,0.681,3.505,-0.626
 20:59:06.263,4.17949,0.583344,-0.966499,0,0,0,0.582,4.032,-0.769
 20:59:06.273,4.61491,0.491051,-1.0391,0,0,0,0.494,4.499,-0.851
 20:59:06.284,4.96685,0.424961,-1.07047,0,0,0,0.428,4.883,-0.884
 20:59:06.293,5.24147,0.387817,-1.10046,0,0,0,0.385,5.186,-0.912
 20:59:06.304,5.47335,0.355855,-1.16673,0,0,0,0.352,5.438,-0.972
 20:59:06.314,5.72399,0.303951,-1.2976,0,0,0,0.297,5.68,-1.099
 20:59:06.324,6.05546,0.219964,-1.50029,0,0,0,0.214,5.977,-1.291
 20:59:06.334,6.48073,0.108321,-1.76208,0,0,0,0.104,6.356,-1.549
 20:59:06.343,6.97073,-0.0200635,-2.05811,0,0,0,-0.016,6.801,-1.84
 20:59:06.353,7.49059,-0.150293,-2.3512,0,0,0,-0.148,7.295,-2.131
 20:59:06.363,8.01667,-0.267533,-2.6078,0,0,0,-0.264,7.8,-2.395
 20:59:06.373,8.52188,-0.355702,-2.80179,0,0,0,-0.346,8.311,-2.598
 20:59:06.383,8.96341,-0.41086,-2.91589,0,0,0,-0.401,8.806,-2.725
 20:59:06.394,9.34072,-0.451421,-2.9703,0,0,0,-0.445,9.25,-2.785
 20:59:06.404,9.67775,-0.50288,-3.02525,0,0,0,-0.5,9.63,-2.834
 20:59:06.413,9.99781,-0.59127,-3.13969,0,0,0,-0.593,9.959,-2.939
 20:59:06.424,10.3318,-0.728164,-3.34262,0,0,0,-0.731,10.267,-3.131
 20:59:06.433,10.7254,-0.915296,-3.63524,0,0,0,-0.917,10.602,-3.411
 20:59:06.443,11.2136,-1.13229,-3.98927,0,0,0,-1.132,11.025,-3.757
 20:59:06.453,11.7852,-1.35189,-4.3576,0,0,0,-1.351,11.552,-4.125
 20:59:06.464,12.3762,-1.54553,-4.68764,0,0,0,-1.544,12.145,-4.46
 20:59:06.474,12.9102,-1.70024,-4.94314,0,0,0,-1.697,12.733,-4.735
 20:59:06.484,13.4077,-1.8196,-5.13228,0,0,0,-1.813,13.266,-4.933
 20:59:06.493,13.9192,-1.91017,-5.29235,0,0,0,-1.906,13.793,-5.098
 20:59:06.504,14.4221,-1.98469,-5.46115,0,0,0,-1.989,14.304,-5.262
 20:59:06.513,14.8992,-2.06653,-5.66889,0,0,0,-2.071,14.788,-5.466
 20:59:06.524,15.3928,-2.17267,-5.94156,0,0,0,-2.175,15.266,-5.724
 20:59:06.533,15.9555,-2.29827,-6.28904,0,0,0,-2.302,15.793,-6.059
 20:59:06.543,16.5926,-2.43038,-6.69464,0,0,0,-2.433,16.386,-6.46
 20:59:06.554,17.2582,-2.55223,-7.11654,0,0,0,-2.554,17.029,-6.888
 20:59:06.564,17.8943,-2.6462,-7.50578,0,0,0,-2.642,17.666,-7.284
 20:59:06.574,18.4762,-2.69482,-7.83004,0,0,0,-2.692,18.27,-7.63
 20:59:06.584,19.0008,-2.68794,-8.08801,0,0,0,-2.681,18.814,-7.899
 20:59:06.594,19.5037,-2.64556,-8.30186,0,0,0,-2.637,19.325,-8.124
 20:59:06.604,20.0061,-2.59424,-8.48516,0,0,0,-2.587,19.83,-8.311
 20:59:06.614,20.4722,-2.56034,-8.6398,0,0,0,-2.554,20.314,-8.465
 20:59:06.624,20.8734,-2.56873,-8.77389,0,0,0,-2.565,20.731,-8.586
 20:59:06.634,21.2186,-2.62311,-8.904,0,0,0,-2.626,21.083,-8.707
 20:59:06.644,21.544,-2.71307,-9.05016,0,0,0,-2.719,21.407,-8.844
 20:59:06.654,21.8921,-2.83175,-9.22863,0,0,0,-2.84,21.742,-9.014
 20:59:06.664,22.2758,-2.95939,-9.43835,0,0,0,-2.966,22.11,-9.223
 20:59:06.674,22.7077,-3.07474,-9.66413,0,0,0,-3.082,22.533,-9.454
 20:59:06.684,23.1877,-3.16591,-9.88713,0,0,0,-3.17,23.005,-9.684
 20:59:06.694,23.6933,-3.22395,-10.0873,0,0,0,-3.219,23.516,-9.888
 20:59:06.704,24.1985,-3.2429,-10.2493,0,0,0,-3.235,24.044,-10.058
 20:59:06.714,24.6858,-3.22872,-10.3899,0,0,0,-3.219,24.543,-10.206
 20:59:06.724,25.175,-3.18571,-10.5409,0,0,0,-3.175,25.032,-10.355
 20:59:06.734,25.7153,-3.12554,-10.7263,0,0,0,-3.115,25.56,-10.541
 20:59:06.744,26.3433,-3.05921,-10.9453,0,0,0,-3.043,26.158,-10.761
 20:59:06.755,27.0444,-3.00885,-11.1857,0,0,0,-2.994,26.845,-10.997
 20:59:06.765,27.7505,-2.97355,-11.408,0,0,0,-2.961,27.559,-11.217
 20:59:06.774,28.3982,-2.95387,-11.582,0,0,0,-2.939,28.229,-11.387
 20:59:06.784,28.9933,-2.95184,-11.6997,0,0,0,-2.933,28.861,-11.508
 20:59:06.795,29.5484,-2.97201,-11.7876,0,0,0,-2.955,29.443,-11.591
 20:59:06.805,30.0851,-2.99642,-11.8881,0,0,0,-2.983,29.965,-11.684
 20:59:06.814,30.638,-2.99391,-12.0246,0,0,0,-2.977,30.493,-11.821
 20:59:06.825,31.2194,-2.9386,-12.1788,0,0,0,-2.917,31.058,-11.981
 20:59:06.835,31.7767,-2.82868,-12.3306,0,0,0,-2.807,31.602,-12.14
 20:59:06.844,32.2957,-2.67452,-12.4639,0,0,0,-2.648,32.135,-12.283
 20:59:06.855,32.7657,-2.52099,-12.6021,0,0,0,-2.488,32.613,-12.42
 20:59:06.865,33.1947,-2.38043,-12.7812,0,0,0,-2.346,33.03,-12.601
 20:59:06.875,33.6185,-2.2432,-13.0082,0,0,0,-2.203,33.448,-12.843
 20:59:06.885,34.0559,-2.10093,-13.2635,0,0,0,-2.049,33.898,-13.123
 20:59:06.894,34.5532,-1.95966,-13.5303,0,0,0,-1.901,34.404,-13.409
 20:59:06.904,35.149,-1.81057,-13.7995,0,0,0,-1.747,34.997,-13.683
 20:59:06.914,35.7733,-1.65006,-14.0828,0,0,0,-1.582,35.612,-13.964
 20:59:06.924,36.3858,-1.46986,-14.3992,0,0,0,-1.401,36.189,-14.266
 20:59:06.934,37.0256,-1.23877,-14.7484,0,0,0,-1.176,36.777,-14.601
 20:59:06.944,37.7254,-0.92611,-15.0897,0,0,0,-0.862,37.452,-14.925
 20:59:06.954,38.4644,-0.533834,-15.3727,0,0,0,-0.467,38.194,-15.205
 20:59:06.964,39.1887,-0.0819775,-15.5733,0,0,0,-0.011,38.947,-15.397
 20:59:06.975,39.8471,0.405067,-15.6986,0,0,0,0.472,39.639,-15.507
 20:59:06.985,40.412,0.905966,-15.7672,0,0,0,0.972,40.248,-15.557
 20:59:06.995,40.8834,1.35853,-15.8285,0,0,0,1.423,40.759,-15.584
 20:59:07.005,41.3798,1.71136,-15.9239,0,0,0,1.763,41.237,-15.639
 20:59:07.015,41.9923,1.97636,-16.0373,0,0,0,2.021,41.814,-15.732
 20:59:07.025,42.7481,2.17633,-16.1324,0,0,0,2.219,42.545,-15.82
 20:59:07.034,43.5768,2.36973,-16.1636,0,0,0,2.417,43.369,-15.853
 20:59:07.044,44.4254,2.63667,-16.0844,0,0,0,2.692,44.236,-15.793
 20:59:07.054,45.276,3.02224,-15.8775,0,0,0,3.076,45.121,-15.59
 20:59:07.064,46.0952,3.52072,-15.5792,0,0,0,3.576,45.978,-15.276
 20:59:07.075,46.8725,4.10478,-15.2721,0,0,0,4.158,46.769,-14.936
 20:59:07.085,47.693,4.73448,-15.0192,0,0,0,4.779,47.576,-14.645
 20:59:07.095,48.5633,5.35562,-14.8325,0,0,0,5.4,48.455,-14.436
 20:59:07.105,49.4567,5.88664,-14.7191,0,0,0,5.933,49.351,-14.321
 20:59:07.114,50.3633,6.26383,-14.6741,0,0,0,6.328,50.257,-14.315
 20:59:07.124,51.267,6.4812,-14.6678,0,0,0,6.581,51.158,-14.387
 20:59:07.134,52.1323,6.558,-14.6938,0,0,0,6.674,52.037,-14.464
 20:59:07.144,52.9435,6.55998,-14.763,0,0,0,6.685,52.861,-14.54
 20:59:07.154,53.7189,6.55241,-14.893,0,0,0,6.674,53.619,-14.65
 20:59:07.164,54.493,6.58741,-15.062,0,0,0,6.707,54.371,-14.793
 20:59:07.175,55.2334,6.66604,-15.2309,0,0,0,6.784,55.113,-14.936
 20:59:07.185,55.949,6.77163,-15.3649,0,0,0,6.894,55.822,-15.057
 20:59:07.195,56.6652,6.91055,-15.4261,0,0,0,7.042,56.552,-15.145
 20:59:07.205,57.3328,7.04826,-15.4438,0,0,0,7.191,57.239,-15.194
 20:59:07.214,57.9114,7.12126,-15.504,0,0,0,7.267,57.854,-15.271
 20:59:07.224,58.3646,7.04421,-15.7235,0,0,0,7.191,58.332,-15.463
 20:59:07.234,58.7638,6.78255,-16.1557,0,0,0,6.927,58.705,-15.853
 20:59:07.245,59.2238,6.38422,-16.7362,0,0,0,6.526,59.117,-16.408
 20:59:07.255,59.7501,5.91078,-17.3689,0,0,0,6.042,59.617,-17.012
 20:59:07.265,60.2909,5.44143,-17.9595,0,0,0,5.565,60.161,-17.567
 20:59:07.275,60.7978,5.03278,-18.4578,0,0,0,5.153,60.688,-18.04
 20:59:07.285,61.2529,4.681,-18.8766,0,0,0,4.801,61.161,-18.463
 20:59:07.295,61.6265,4.33995,-19.2713,0,0,0,4.466,61.556,-18.869
 20:59:07.305,61.8962,3.92867,-19.7421,0,0,0,4.048,61.831,-19.33
 20:59:07.315,62.0799,3.41234,-20.3489,0,0,0,3.532,62.001,-19.913
 20:59:07.325,62.2212,2.75517,-21.1118,0,0,0,2.867,62.122,-20.649
 20:59:07.335,62.3663,1.94144,-22.0009,0,0,0,2.043,62.26,-21.506
 20:59:07.345,62.4985,1.01703,-22.9259,0,0,0,1.104,62.397,-22.401
 20:59:07.354,62.5992,0.051355,-23.8173,0,0,0,0.132,62.512,-23.269
 20:59:07.364,62.6663,-0.86921,-24.6263,0,0,0,-0.786,62.589,-24.099
 20:59:07.374,62.7282,-1.66972,-25.3212,0,0,0,-1.582,62.661,-24.835
 20:59:07.384,62.8271,-2.30653,-25.8867,0,0,0,-2.214,62.765,-25.466
 20:59:07.395,62.8993,-2.82824,-26.3776,0,0,0,-2.736,62.847,-25.999
 20:59:07.405,62.9254,-3.37514,-26.8987,0,0,0,-3.29,62.853,-26.483
 20:59:07.415,62.7826,-4.09078,-27.3414,0,0,0,-3.994,62.787,-26.911
 20:59:07.425,62.5221,-4.78932,-27.5559,0,0,0,-4.768,62.639,-27.186
 20:59:07.434,62.0707,-5.36213,-27.4875,0,0,0,-5.499,62.369,-27.263
 20:59:07.444,61.4466,-5.74836,-27.2019,0,0,0,-6.042,61.924,-27.136
 20:59:07.455,60.7679,-5.92064,-26.7958,0,0,0,-6.389,61.304,-26.84
