时间,pitch,roll,yaw,gyroX_bias,gyroY_bias,gyroZ_bias,
 17:48:57.538,-1.83444,-1.14699,0.0183625,0,0,0
 17:48:57.539,-1.83281,-1.14699,0.0182674,0,0,0
 17:48:57.542,-1.83227,-1.1477,0.0181623,0,0,0
 17:48:57.543,-1.83172,-1.14709,0.0180204,0,0,0
 17:48:57.543,-1.83057,-1.14652,0.017904,0,0,0
 17:48:57.543,-1.82944,-1.14596,0.017841,0,0,0
 17:48:57.545,-1.82835,-1.14591,0.0178636,0,0,0
 17:48:57.546,-1.82778,-1.14577,0.0177925,0,0,0
 17:48:57.546,-1.82673,-1.14529,0.0176382,0,0,0
 17:48:57.547,-1.82563,-1.14534,0.0175538,0,0,0
 17:48:57.547,-1.82453,-1.14535,0.0175357,0,0,0
 17:48:57.548,-1.8229,-1.14535,0.0174127,0,0,0
 17:48:57.548,-1.82186,-1.14536,0.01725,0,0,0
 17:48:57.549,-1.82082,-1.14476,0.017148,0,0,0
 17:48:57.549,-1.82034,-1.14365,0.01708,0,0,0
 17:48:57.550,-1.81935,-1.14316,0.0169922,0,0,0
 17:48:57.550,-1.81843,-1.14325,0.0168981,0,0,0
 17:48:57.551,-1.81746,-1.14391,0.0167415,0,0,0
 17:48:57.551,-1.8159,-1.14454,0.0165309,0,0,0
 17:48:57.552,-1.81439,-1.14571,0.016392,0,0,0
 17:48:57.552,-1.81345,-1.14626,0.0163402,0,0,0
 17:48:57.553,-1.81246,-1.14735,0.0162785,0,0,0
 17:48:57.553,-1.8121,-1.14841,0.0161115,0,0,0
 17:48:57.554,-1.81179,-1.14835,0.0159355,0,0,0
 17:48:57.554,-1.81146,-1.14713,0.0157628,0,0,0
 17:48:57.555,-1.81059,-1.14591,0.0155911,0,0,0
 17:48:57.555,-1.81026,-1.14472,0.0154718,0,0,0
 17:48:57.556,-1.80988,-1.14415,0.0153963,0,0,0
 17:48:57.556,-1.80893,-1.14415,0.0152988,0,0,0
 17:48:57.557,-1.80802,-1.14413,0.0151758,0,0,0
 17:48:57.557,-1.80655,-1.1447,0.0150181,0,0,0
 17:48:57.558,-1.80512,-1.14589,0.0148522,0,0,0
 17:48:57.558,-1.80432,-1.1465,0.0146688,0,0,0
 17:48:57.559,-1.8041,-1.14649,0.0145731,0,0,0
 17:48:57.559,-1.80386,-1.14644,0.0145695,0,0,0
 17:48:57.560,-1.80302,-1.14581,0.0145344,0,0,0
 17:48:57.560,-1.80224,-1.14582,0.0143729,0,0,0
 17:48:57.561,-1.80148,-1.14527,0.0142595,0,0,0
 17:48:57.561,-1.8007,-1.14529,0.0142301,0,0,0
 17:48:57.562,-1.7999,-1.1453,0.0141864,0,0,0
 17:48:57.562,-1.79906,-1.14584,0.0140938,0,0,0
 17:48:57.563,-1.79828,-1.14636,0.0140025,0,0,0
 17:48:57.563,-1.79755,-1.14694,0.013846,0,0,0
 17:48:57.564,-1.79681,-1.14759,0.0136883,0,0,0
 17:48:57.564,-1.79598,-1.14825,0.0135939,0,0,0
 17:48:57.565,-1.79518,-1.14829,0.0135083,0,0,0
 17:48:57.565,-1.79443,-1.14764,0.0133536,0,0,0
 17:48:57.566,-1.79372,-1.14697,0.0132924,0,0,0
 17:48:57.566,-1.79298,-1.14578,0.0132523,0,0,0
 17:48:57.567,-1.79161,-1.1446,0.0131181,0,0,0
 17:48:57.567,-1.7908,-1.14346,0.0128647,0,0,0
 17:48:57.568,-1.79005,-1.14233,0.0126659,0,0,0
 17:48:57.568,-1.78995,-1.14173,0.0126857,0,0,0
 17:48:57.569,-1.7899,-1.14181,0.0127377,0,0,0
 17:48:57.569,-1.78929,-1.14193,0.0125911,0,0,0
 17:48:57.570,-1.78921,-1.14201,0.0123905,0,0,0
 17:48:57.570,-1.78848,-1.14142,0.0122502,0,0,0
 17:48:57.571,-1.78837,-1.14087,0.0122299,0,0,0
 17:48:57.571,-1.78767,-1.14041,0.0121691,0,0,0
 17:48:57.572,-1.78693,-1.13997,0.0120411,0,0,0
 17:48:57.572,-1.78685,-1.13947,0.0118888,0,0,0
 17:48:57.573,-1.78684,-1.13955,0.0118626,0,0,0
 17:48:57.573,-1.78687,-1.13964,0.0118502,0,0,0
 17:48:57.574,-1.78622,-1.14026,0.011721,0,0,0
 17:48:57.575,-1.78559,-1.14093,0.0116183,0,0,0
 17:48:57.575,-1.78438,-1.1422,0.0116386,0,0,0
 17:48:57.575,-1.78315,-1.14344,0.0116577,0,0,0
 17:48:57.576,-1.78253,-1.1434,0.0115226,0,0,0
 17:48:57.576,-1.78191,-1.14388,0.0114187,0,0,0
 17:48:57.577,-1.78128,-1.14381,0.0113493,0,0,0
 17:48:57.577,-1.78123,-1.14321,0.0112349,0,0,0
 17:48:57.578,-1.7812,-1.14267,0.0110951,0,0,0
 17:48:57.578,-1.7812,-1.14213,0.010943,0,0,0
 17:48:57.579,-1.78061,-1.14155,0.0108303,0,0,0
 17:48:57.579,-1.77942,-1.14094,0.0107037,0,0,0
 17:48:57.580,-1.77881,-1.1398,0.0105593,0,0,0
 17:48:57.581,-1.77768,-1.13925,0.0104604,0,0,0
 17:48:57.581,-1.77714,-1.13871,0.0103754,0,0,0
 17:48:57.581,-1.77543,-1.13874,0.0103209,0,0,0
 17:48:57.582,-1.77429,-1.13875,0.0102265,0,0,0
 17:48:57.582,-1.77317,-1.13822,0.0100879,0,0,0
 17:48:57.583,-1.77268,-1.1383,0.010034,0,0,0
 17:48:57.583,-1.77216,-1.1378,0.0100148,0,0,0
 17:48:57.584,-1.77167,-1.13785,0.0100007,0,0,0
 17:48:57.584,-1.77118,-1.13728,0.00983648,0,0,0
 17:48:57.585,-1.77067,-1.13676,0.00968483,0,0,0
 17:48:57.585,-1.77009,-1.13686,0.00960223,0,0,0
 17:48:57.586,-1.76955,-1.13697,0.00957324,0,0,0
 17:48:57.586,-1.76907,-1.13756,0.00955065,0,0,0
 17:48:57.587,-1.76865,-1.13811,0.00942341,0,0,0
 17:48:57.587,-1.76761,-1.13867,0.00922831,0,0,0
 17:48:57.588,-1.76712,-1.13875,0.00906715,0,0,0
 17:48:57.588,-1.76659,-1.13886,0.0089972,0,0,0
 17:48:57.589,-1.76666,-1.13834,0.0088969,0,0,0
 17:48:57.589,-1.76622,-1.1384,0.00885576,0,0,0
 17:48:57.590,-1.7664,-1.13789,0.00881127,0,0,0
 17:48:57.590,-1.76596,-1.13738,0.00872616,0,0,0
 17:48:57.591,-1.76549,-1.13743,0.00863162,0,0,0
 17:48:57.591,-1.76556,-1.13743,0.00854977,0,0,0
 17:48:57.592,-1.76508,-1.13802,0.00849918,0,0,0
 17:48:57.592,-1.76461,-1.13747,0.00840009,0,0,0
 17:48:57.593,-1.76472,-1.1375,0.00827932,0,0,0
 17:48:57.594,-1.76423,-1.13813,0.00817515,0,0,0
 17:48:57.594,-1.7638,-1.13879,0.00809844,0,0,0
 17:48:57.594,-1.76343,-1.13883,0.0080586,0,0,0
 17:48:57.595,-1.76307,-1.13942,0.00797039,0,0,0
 17:48:57.595,-1.76329,-1.13946,0.00783794,0,0,0
 17:48:57.596,-1.76353,-1.13951,0.00770583,0,0,0
 17:48:57.597,-1.76316,-1.13957,0.00755959,0,0,0
 17:48:57.597,-1.76269,-1.13961,0.0074244,0,0,0
 17:48:57.597,-1.76222,-1.13966,0.00732836,0,0,0
 17:48:57.598,-1.76178,-1.13913,0.0072022,0,0,0
 17:48:57.598,-1.76134,-1.13859,0.00706323,0,0,0
 17:48:57.599,-1.76092,-1.13752,0.00692013,0,0,0
 17:48:57.599,-1.76116,-1.13704,0.00679711,0,0,0
 17:48:57.600,-1.76146,-1.13652,0.00671546,0,0,0
 17:48:57.601,-1.76108,-1.13593,0.00669759,0,0,0
 17:48:57.601,-1.76008,-1.13537,0.00666527,0,0,0
 17:48:57.601,-1.75969,-1.13432,0.006563,0,0,0
 17:48:57.602,-1.7593,-1.13388,0.00647895,0,0,0
 17:48:57.602,-1.75897,-1.13345,0.0063568,0,0,0
 17:48:57.603,-1.75864,-1.13297,0.00623479,0,0,0
 17:48:57.604,-1.75768,-1.13309,0.00615515,0,0,0
 17:48:57.604,-1.75729,-1.13328,0.00611439,0,0,0
 17:48:57.604,-1.75699,-1.13402,0.00602735,0,0,0
 17:48:57.605,-1.75664,-1.13471,0.00588657,0,0,0
 17:48:57.605,-1.75625,-1.1354,0.00578354,0,0,0
 17:48:57.606,-1.75586,-1.13494,0.00571114,0,0,0
 17:48:57.607,-1.75551,-1.13446,0.00566665,0,0,0
 17:48:57.607,-1.7552,-1.13459,0.00564066,0,0,0
 17:48:57.607,-1.75546,-1.13474,0.00560087,0,0,0
 17:48:57.608,-1.75453,-1.13487,0.00549425,0,0,0
 17:48:57.608,-1.75424,-1.13499,0.00545524,0,0,0
 17:48:57.609,-1.75395,-1.13449,0.00546482,0,0,0
 17:48:57.610,-1.75427,-1.1346,0.00542645,0,0,0
 17:48:57.610,-1.75395,-1.13416,0.00530282,0,0,0
 17:48:57.610,-1.753,-1.13372,0.00517753,0,0,0
 17:48:57.611,-1.75265,-1.13385,0.00512347,0,0,0
 17:48:57.611,-1.75238,-1.13339,0.00500077,0,0,0
 17:48:57.612,-1.75151,-1.13292,0.00485103,0,0,0
 17:48:57.613,-1.75064,-1.1325,0.00476745,0,0,0
 17:48:57.613,-1.75036,-1.13154,0.00471947,0,0,0
 17:48:57.614,-1.74951,-1.1306,0.00469841,0,0,0
 17:48:57.614,-1.74923,-1.13076,0.00465941,0,0,0
 17:48:57.614,-1.74838,-1.13091,0.00454134,0,0,0
 17:48:57.615,-1.74813,-1.13054,0.00439245,0,0,0
 17:48:57.615,-1.74726,-1.13077,0.00426029,0,0,0
 17:48:57.616,-1.7464,-1.13094,0.00414119,0,0,0
 17:48:57.617,-1.74556,-1.13104,0.00408882,0,0,0
 17:48:57.617,-1.74479,-1.13057,0.00404654,0,0,0
 17:48:57.618,-1.74458,-1.13071,0.00394244,0,0,0
 17:48:57.618,-1.74439,-1.13148,0.00380312,0,0,0
 17:48:57.618,-1.7447,-1.13223,0.00367465,0,0,0
 17:48:57.619,-1.74439,-1.13236,0.00358046,0,0,0
 17:48:57.620,-1.7441,-1.13185,0.00345631,0,0,0
 17:48:57.620,-1.74388,-1.13196,0.00335147,0,0,0
 17:48:57.621,-1.7443,-1.13216,0.00331398,0,0,0
 17:48:57.621,-1.74412,-1.13179,0.00329803,0,0,0
 17:48:57.621,-1.74388,-1.1325,0.00326272,0,0,0
 17:48:57.622,-1.74362,-1.13324,0.00312079,0,0,0
 17:48:57.623,-1.74283,-1.13403,0.00300591,0,0,0
 17:48:57.623,-1.74262,-1.13419,0.00293995,0,0,0
 17:48:57.623,-1.74179,-1.1343,0.00277991,0,0,0
 17:48:57.624,-1.74153,-1.13444,0.00264599,0,0,0
 17:48:57.624,-1.74072,-1.13464,0.00259165,0,0,0
 17:48:57.625,-1.7405,-1.13481,0.00248465,0,0,0
 17:48:57.626,-1.74034,-1.13489,0.00236592,0,0,0
 17:48:57.626,-1.74022,-1.13495,0.00226156,0,0,0
 17:48:57.626,-1.74008,-1.13508,0.00219614,0,0,0
 17:48:57.627,-1.7393,-1.13581,0.00213317,0,0,0
 17:48:57.627,-1.73854,-1.13592,0.00202636,0,0,0
 17:48:57.628,-1.73839,-1.13548,0.00188962,0,0,0
 17:48:57.629,-1.73819,-1.13561,0.00187507,0,0,0
 17:48:57.629,-1.73798,-1.13511,0.00182978,0,0,0
 17:48:57.630,-1.73782,-1.13462,0.00175906,0,0,0
 17:48:57.630,-1.73818,-1.13469,0.00169124,0,0,0
 17:48:57.631,-1.73731,-1.13415,0.00159097,0,0,0
 17:48:57.631,-1.73705,-1.13307,0.00143453,0,0,0
 17:48:57.631,-1.73684,-1.13265,0.00132337,0,0,0
 17:48:57.632,-1.73612,-1.13227,0.0013064,0,0,0
 17:48:57.633,-1.73599,-1.13242,0.00126768,0,0,0
 17:48:57.633,-1.73579,-1.13196,0.00113066,0,0,0
 17:48:57.633,-1.73558,-1.13214,0.000957178,0,0,0
 17:48:57.634,-1.73598,-1.13228,0.000811437,0,0,0
 17:48:57.634,-1.73637,-1.13295,0.000762443,0,0,0
 17:48:57.635,-1.7373,-1.133,0.000655465,0,0,0
 17:48:57.636,-1.73774,-1.13371,0.000567617,0,0,0
 17:48:57.636,-1.73816,-1.13385,0.000435272,0,0,0
 17:48:57.637,-1.73851,-1.13397,0.000261904,0,0,0
 17:48:57.637,-1.7383,-1.13403,0.000195056,0,0,0
 17:48:57.637,-1.73865,-1.13463,0.000131712,0,0,0
 17:48:57.638,-1.7384,-1.13469,3.68814e-05,0,0,0
 17:48:57.639,-1.73878,-1.13479,-1.6831e-05,0,0,0
 17:48:57.639,-1.73925,-1.1349,-9.467e-05,0,0,0
 17:48:57.640,-1.73915,-1.13442,-0.000255976,0,0,0
 17:48:57.640,-1.739,-1.13457,-0.000388195,0,0,0
 17:48:57.640,-1.73887,-1.13528,-0.000423104,0,0,0
 17:48:57.641,-1.73869,-1.13594,-0.000379706,0,0,0
 17:48:57.642,-1.73785,-1.1366,-0.000378565,0,0,0
 17:48:57.642,-1.7376,-1.13727,-0.000403667,0,0,0
 17:48:57.643,-1.73737,-1.13728,-0.000459063,0,0,0
 17:48:57.643,-1.73718,-1.13731,-0.00055328,0,0,0
 17:48:57.643,-1.73697,-1.13743,-0.00060887,0,0,0
 17:48:57.644,-1.73683,-1.13702,-0.000693699,0,0,0
 17:48:57.645,-1.73724,-1.13654,-0.000804789,0,0,0
 17:48:57.645,-1.73648,-1.13598,-0.000889544,0,0,0
 17:48:57.646,-1.73624,-1.13544,-0.000976001,0,0,0
 17:48:57.646,-1.73599,-1.13492,-0.00100929,0,0,0
 17:48:57.647,-1.73522,-1.13442,-0.00101507,0,0,0
 17:48:57.647,-1.7345,-1.13449,-0.00104188,0,0,0
 17:48:57.647,-1.73442,-1.13457,-0.00116008,0,0,0
 17:48:57.648,-1.73381,-1.1353,-0.00123355,0,0,0
 17:48:57.649,-1.73436,-1.13609,-0.00132024,0,0,0
 17:48:57.649,-1.73368,-1.13686,-0.0014226,0,0,0
 17:48:57.650,-1.73297,-1.13756,-0.00147306,0,0,0
 17:48:57.650,-1.73281,-1.13766,-0.00159462,0,0,0
 17:48:57.650,-1.73204,-1.13714,-0.00180041,0,0,0
 17:48:57.651,-1.73184,-1.13658,-0.00182107,0,0,0
 17:48:57.652,-1.73168,-1.13602,-0.00185379,0,0,0
 17:48:57.652,-1.73155,-1.13553,-0.00193833,0,0,0
 17:48:57.653,-1.73142,-1.13506,-0.00202342,0,0,0
 17:48:57.653,-1.73181,-1.1345,-0.0021357,0,0,0
 17:48:57.653,-1.73162,-1.1334,-0.00225189,0,0,0
 17:48:57.654,-1.73148,-1.13292,-0.0022173,0,0,0
 17:48:57.655,-1.73088,-1.13301,-0.00225467,0,0,0
 17:48:57.655,-1.73079,-1.13309,-0.00234671,0,0,0
 17:48:57.656,-1.73122,-1.13323,-0.002361,0,0,0
 17:48:57.656,-1.73112,-1.13337,-0.00241405,0,0,0
 17:48:57.656,-1.73107,-1.13352,-0.00250551,0,0,0
 17:48:57.657,-1.73155,-1.13368,-0.0026114,0,0,0
 17:48:57.658,-1.73203,-1.13442,-0.0026339,0,0,0
 17:48:57.658,-1.73256,-1.13511,-0.00260205,0,0,0
 17:48:57.659,-1.73247,-1.13515,-0.00260184,0,0,0
 17:48:57.659,-1.73233,-1.13524,-0.00264298,0,0,0
 17:48:57.659,-1.7322,-1.13591,-0.00267955,0,0,0
 17:48:57.660,-1.73149,-1.13599,-0.00273375,0,0,0
 17:48:57.661,-1.73135,-1.13617,-0.00280176,0,0,0
 17:48:57.661,-1.73128,-1.13638,-0.00289453,0,0,0
 17:48:57.662,-1.73069,-1.13652,-0.00298572,0,0,0
 17:48:57.662,-1.73002,-1.13596,-0.00309656,0,0,0
 17:48:57.663,-1.72924,-1.13601,-0.00317969,0,0,0
 17:48:57.663,-1.72908,-1.13622,-0.00319599,0,0,0
 17:48:57.663,-1.72839,-1.13641,-0.00319805,0,0,0
 17:48:57.664,-1.72772,-1.13589,-0.0032167,0,0,0
 17:48:57.665,-1.72764,-1.13597,-0.00315158,0,0,0
 17:48:57.665,-1.72751,-1.13606,-0.00323315,0,0,0
 17:48:57.666,-1.72739,-1.1361,-0.00338074,0,0,0
 17:48:57.666,-1.72669,-1.13672,-0.003498,0,0,0
 17:48:57.666,-1.72657,-1.1368,-0.0036464,0,0,0
 17:48:57.667,-1.72645,-1.13695,-0.00372883,0,0,0
 17:48:57.668,-1.72632,-1.13655,-0.00384208,0,0,0
 17:48:57.668,-1.72623,-1.13663,-0.00396349,0,0,0
 17:48:57.669,-1.7262,-1.13605,-0.00404727,0,0,0
 17:48:57.669,-1.72615,-1.13604,-0.00402134,0,0,0
 17:48:57.669,-1.72607,-1.13549,-0.00406654,0,0,0
 17:48:57.670,-1.72595,-1.13496,-0.00413931,0,0,0
 17:48:57.671,-1.72586,-1.13504,-0.00418055,0,0,0
 17:48:57.671,-1.72582,-1.13458,-0.00427774,0,0,0
 17:48:57.672,-1.72577,-1.13472,-0.00434452,0,0,0
 17:48:57.672,-1.7257,-1.13481,-0.00439843,0,0,0
 17:48:57.673,-1.72566,-1.13428,-0.00450863,0,0,0
 17:48:57.673,-1.72507,-1.13379,-0.00469766,0,0,0
 17:48:57.674,-1.72502,-1.1339,-0.00480397,0,0,0
 17:48:57.674,-1.72443,-1.1346,-0.00482633,0,0,0
 17:48:57.675,-1.7244,-1.13526,-0.00486242,0,0,0
 17:48:57.675,-1.72433,-1.13591,-0.00488623,0,0,0
 17:48:57.675,-1.72432,-1.1366,-0.00488286,0,0,0
 17:48:57.676,-1.72431,-1.1373,-0.00495855,0,0,0
 17:48:57.677,-1.72428,-1.13742,-0.00510534,0,0,0
 17:48:57.677,-1.7242,-1.13753,-0.00514742,0,0,0
 17:48:57.678,-1.7236,-1.13762,-0.00516199,0,0,0
 17:48:57.678,-1.72362,-1.13769,-0.00525499,0,0,0
 17:48:57.679,-1.72411,-1.13716,-0.00540724,0,0,0
 17:48:57.679,-1.72459,-1.13662,-0.00550624,0,0,0
 17:48:57.679,-1.72514,-1.13612,-0.00557741,0,0,0
 17:48:57.680,-1.72513,-1.13567,-0.00570093,0,0,0
 17:48:57.681,-1.72507,-1.13579,-0.00578148,0,0,0
 17:48:57.681,-1.72501,-1.13537,-0.00582681,0,0,0
 17:48:57.682,-1.72503,-1.13497,-0.00588315,0,0,0
 17:48:57.682,-1.72446,-1.13458,-0.00588693,0,0,0
 17:48:57.682,-1.72388,-1.13422,-0.00589098,0,0,0
 17:48:57.683,-1.72382,-1.13437,-0.00598485,0,0,0
 17:48:57.684,-1.72378,-1.13446,-0.00611792,0,0,0
 17:48:57.684,-1.72377,-1.13452,-0.00618389,0,0,0
 17:48:57.685,-1.72371,-1.13399,-0.00618918,0,0,0
 17:48:57.685,-1.72419,-1.13345,-0.00614238,0,0,0
 17:48:57.686,-1.72358,-1.13244,-0.00625644,0,0,0
 17:48:57.686,-1.72356,-1.13145,-0.00647626,0,0,0
 17:48:57.687,-1.7241,-1.13043,-0.00661648,0,0,0
 17:48:57.687,-1.72405,-1.12942,-0.00669038,0,0,0
 17:48:57.688,-1.72404,-1.12845,-0.0067104,0,0,0
 17:48:57.688,-1.72404,-1.12806,-0.00667309,0,0,0
 17:48:57.689,-1.72404,-1.12765,-0.00676767,0,0,0
 17:48:57.689,-1.72349,-1.12785,-0.00692326,0,0,0
 17:48:57.690,-1.72351,-1.12865,-0.00703599,0,0,0
 17:48:57.690,-1.72352,-1.12945,-0.0070698,0,0,0
 17:48:57.691,-1.72355,-1.13028,-0.00712975,0,0,0
 17:48:57.691,-1.72295,-1.13108,-0.00716508,0,0,0
 17:48:57.692,-1.72287,-1.13182,-0.00717519,0,0,0
 17:48:57.692,-1.72284,-1.13254,-0.00719774,0,0,0
 17:48:57.693,-1.72287,-1.1333,-0.00727188,0,0,0
 17:48:57.693,-1.72229,-1.13339,-0.00745671,0,0,0
 17:48:57.694,-1.72228,-1.13348,-0.00768175,0,0,0
 17:48:57.694,-1.72165,-1.13355,-0.00776206,0,0,0
 17:48:57.695,-1.72104,-1.13307,-0.00782014,0,0,0
 17:48:57.695,-1.72041,-1.13267,-0.00797136,0,0,0
 17:48:57.696,-1.72037,-1.13225,-0.00809533,0,0,0
 17:48:57.696,-1.72043,-1.13068,-0.00814496,0,0,0
 17:48:57.697,-1.71997,-1.12972,-0.00814959,0,0,0
 17:48:57.697,-1.72002,-1.12932,-0.00815125,0,0,0
 17:48:57.698,-1.72003,-1.12952,-0.00821656,0,0,0
 17:48:57.698,-1.72007,-1.12918,-0.00835115,0,0,0
 17:48:57.699,-1.72071,-1.1288,-0.00845855,0,0,0
 17:48:57.699,-1.7213,-1.12836,-0.00854015,0,0,0
 17:48:57.700,-1.72131,-1.12793,-0.00858213,0,0,0
 17:48:57.700,-1.72187,-1.12757,-0.00861151,0,0,0
 17:48:57.701,-1.72183,-1.12779,-0.00865039,0,0,0
 17:48:57.701,-1.72186,-1.12744,-0.00877121,0,0,0
 17:48:57.702,-1.72189,-1.12708,-0.00887842,0,0,0
 17:48:57.702,-1.72199,-1.12678,-0.00895766,0,0,0
 17:48:57.703,-1.72267,-1.12712,-0.00903307,0,0,0
 17:48:57.703,-1.72327,-1.12802,-0.00911909,0,0,0
 17:48:57.704,-1.72326,-1.12887,-0.00921949,0,0,0
 17:48:57.704,-1.72265,-1.12971,-0.00928118,0,0,0
 17:48:57.705,-1.72262,-1.13052,-0.00932976,0,0,0
 17:48:57.705,-1.72203,-1.13129,-0.00941767,0,0,0
 17:48:57.706,-1.72199,-1.13148,-0.00956368,0,0,0
 17:48:57.706,-1.722,-1.13223,-0.00978365,0,0,0
 17:48:57.707,-1.722,-1.13298,-0.00995134,0,0,0
 17:48:57.707,-1.72135,-1.1337,-0.0100019,0,0,0
 17:48:57.708,-1.72128,-1.13379,-0.0100964,0,0,0
 17:48:57.708,-1.7207,-1.13388,-0.0102823,0,0,0
 17:48:57.709,-1.72073,-1.13398,-0.0104139,0,0,0
 17:48:57.709,-1.72069,-1.13351,-0.0104721,0,0,0
 17:48:57.710,-1.72066,-1.13362,-0.0104994,0,0,0
 17:48:57.710,-1.72064,-1.13319,-0.0105701,0,0,0
 17:48:57.711,-1.72064,-1.1328,-0.0106935,0,0,0
 17:48:57.711,-1.72003,-1.13297,-0.0108667,0,0,0
 17:48:57.712,-1.71997,-1.13311,-0.0110271,0,0,0
 17:48:57.712,-1.71998,-1.13331,-0.0110934,0,0,0
 17:48:57.713,-1.71945,-1.13291,-0.0110971,0,0,0
 17:48:57.713,-1.71945,-1.13245,-0.011115,0,0,0
 17:48:57.714,-1.71946,-1.13258,-0.0112337,0,0,0
 17:48:57.714,-1.72005,-1.13271,-0.0114055,0,0,0
 17:48:57.715,-1.72006,-1.13225,-0.0115152,0,0,0
 17:48:57.715,-1.71949,-1.1318,-0.0116247,0,0,0
 17:48:57.716,-1.71949,-1.13191,-0.0116776,0,0,0
 17:48:57.716,-1.71945,-1.13144,-0.0117225,0,0,0
 17:48:57.717,-1.71996,-1.13041,-0.0118508,0,0,0
 17:48:57.717,-1.71985,-1.13057,-0.0119854,0,0,0
 17:48:57.718,-1.72033,-1.13018,-0.0121233,0,0,0
 17:48:57.718,-1.72146,-1.13038,-0.0122025,0,0,0
 17:48:57.719,-1.72258,-1.12996,-0.0123253,0,0,0
 17:48:57.719,-1.72312,-1.13014,-0.0124571,0,0,0
 17:48:57.720,-1.72365,-1.13035,-0.0125232,0,0,0
 17:48:57.720,-1.72359,-1.13052,-0.0125499,0,0,0
 17:48:57.721,-1.72415,-1.13071,-0.0126678,0,0,0
 17:48:57.721,-1.72474,-1.1309,-0.0128512,0,0,0
 17:48:57.722,-1.72467,-1.13107,-0.0130101,0,0,0
 17:48:57.722,-1.72465,-1.13124,-0.0130621,0,0,0
 17:48:57.723,-1.72466,-1.13142,-0.0130606,0,0,0
 17:48:57.723,-1.72469,-1.13223,-0.0130944,0,0,0
 17:48:57.724,-1.72469,-1.13412,-0.0130812,0,0,0
 17:48:57.724,-1.72399,-1.13534,-0.0131417,0,0,0
 17:48:57.725,-1.72325,-1.13596,-0.0132739,0,0,0
 17:48:57.725,-1.72312,-1.13663,-0.0133662,0,0,0
 17:48:57.726,-1.72303,-1.13732,-0.0134178,0,0,0
 17:48:57.726,-1.723,-1.13679,-0.0135684,0,0,0
 17:48:57.727,-1.72295,-1.13626,-0.0137328,0,0,0
 17:48:57.727,-1.7223,-1.13574,-0.0138716,0,0,0
 17:48:57.728,-1.72169,-1.1346,-0.0140134,0,0,0
 17:48:57.728,-1.72105,-1.13346,-0.0140227,0,0,0
 17:48:57.729,-1.72101,-1.13182,-0.0140226,0,0,0
 17:48:57.729,-1.7204,-1.13078,-0.0139781,0,0,0
 17:48:57.730,-1.71981,-1.13036,-0.014035,0,0,0
 17:48:57.730,-1.71921,-1.13053,-0.0141545,0,0,0
 17:48:57.731,-1.7186,-1.13015,-0.014265,0,0,0
 17:48:57.731,-1.71804,-1.12972,-0.0143876,0,0,0
 17:48:57.732,-1.7175,-1.12992,-0.0144925,0,0,0
 17:48:57.732,-1.71749,-1.12954,-0.0145496,0,0,0
 17:48:57.733,-1.71807,-1.12972,-0.0145624,0,0,0
 17:48:57.733,-1.71867,-1.12933,-0.0146451,0,0,0
 17:48:57.734,-1.71929,-1.12957,-0.0147895,0,0,0
 17:48:57.734,-1.71934,-1.12983,-0.0149204,0,0,0
 17:48:57.735,-1.7194,-1.13006,-0.0150111,0,0,0
 17:48:57.735,-1.7194,-1.1308,-0.0150461,0,0,0
 17:48:57.736,-1.71935,-1.13091,-0.0150868,0,0,0
 17:48:57.736,-1.71931,-1.13098,-0.0151401,0,0,0
 17:48:57.737,-1.71934,-1.13219,-0.0152102,0,0,0
 17:48:57.737,-1.71944,-1.13235,-0.0153669,0,0,0
 17:48:57.738,-1.7201,-1.13314,-0.0154668,0,0,0
 17:48:57.738,-1.72015,-1.13392,-0.0155148,0,0,0
 17:48:57.739,-1.72012,-1.13457,-0.0155515,0,0,0
 17:48:57.739,-1.71954,-1.13521,-0.0156411,0,0,0
 17:48:57.740,-1.71953,-1.13534,-0.0157481,0,0,0
 17:48:57.740,-1.71891,-1.13546,-0.0158164,0,0,0
 17:48:57.741,-1.7183,-1.13607,-0.0158676,0,0,0
 17:48:57.741,-1.71831,-1.13611,-0.0159084,0,0,0
 17:48:57.742,-1.7184,-1.13624,-0.0159868,0,0,0
 17:48:57.742,-1.71844,-1.13574,-0.0161368,0,0,0
 17:48:57.743,-1.71905,-1.13463,-0.0162246,0,0,0
 17:48:57.743,-1.71852,-1.1341,-0.0162547,0,0,0
 17:48:57.744,-1.71853,-1.13364,-0.0163785,0,0,0
 17:48:57.745,-1.71851,-1.13323,-0.0164898,0,0,0
 17:48:57.745,-1.71795,-1.1328,-0.0165996,0,0,0
 17:48:57.745,-1.71796,-1.13235,-0.0166171,0,0,0
 17:48:57.746,-1.71737,-1.13192,-0.0165954,0,0,0
 17:48:57.746,-1.71679,-1.13149,-0.0166266,0,0,0
 17:48:57.747,-1.71684,-1.13106,-0.0166565,0,0,0
 17:48:57.748,-1.71694,-1.13064,-0.0167774,0,0,0
 17:48:57.748,-1.71701,-1.13079,-0.016895,0,0,0
 17:48:57.748,-1.71704,-1.13089,-0.0169606,0,0,0
 17:48:57.749,-1.71703,-1.13099,-0.0169872,0,0,0
 17:48:57.749,-1.71704,-1.13109,-0.016974,0,0,0
 17:48:57.750,-1.71708,-1.13121,-0.0170529,0,0,0
 17:48:57.750,-1.71709,-1.13082,-0.0171495,0,0,0
 17:48:57.751,-1.71713,-1.1304,-0.017206,0,0,0
 17:48:57.751,-1.71776,-1.1299,-0.0173144,0,0,0
 17:48:57.752,-1.71838,-1.13059,-0.0174151,0,0,0
 17:48:57.752,-1.71845,-1.13076,-0.0174928,0,0,0
 17:48:57.753,-1.71845,-1.13088,-0.0175456,0,0,0
 17:48:57.753,-1.7179,-1.13159,-0.0175542,0,0,0
 17:48:57.754,-1.7174,-1.13236,-0.0175756,0,0,0
 17:48:57.754,-1.7169,-1.13254,-0.017614,0,0,0
 17:48:57.755,-1.71638,-1.13324,-0.0176625,0,0,0
 17:48:57.755,-1.71585,-1.13393,-0.0176983,0,0,0
 17:48:57.756,-1.71534,-1.13404,-0.0177247,0,0,0
 17:48:57.760,-1.71538,-1.13416,-0.0177387,0,0,0
 17:48:57.760,-1.71546,-1.13486,-0.0177348,0,0,0
 17:48:57.760,-1.71555,-1.13501,-0.017814,0,0,0
 17:48:57.760,-1.71566,-1.13516,-0.0178926,0,0,0
 17:48:57.760,-1.71517,-1.13528,-0.0179851,0,0,0
 17:48:57.760,-1.71466,-1.13477,-0.0180817,0,0,0
 17:48:57.760,-1.71468,-1.13429,-0.0181533,0,0,0
 17:48:57.760,-1.71465,-1.1338,-0.0182389,0,0,0
 17:48:57.760,-1.71466,-1.13336,-0.0182974,0,0,0
 17:48:57.761,-1.71473,-1.13231,-0.0183446,0,0,0
 17:48:57.761,-1.71479,-1.13183,-0.0183879,0,0,0
 17:48:57.762,-1.71482,-1.13086,-0.0184759,0,0,0
 17:48:57.762,-1.71435,-1.12937,-0.0185525,0,0,0
 17:48:57.763,-1.71389,-1.1284,-0.0186772,0,0,0
 17:48:57.764,-1.71396,-1.12736,-0.0188421,0,0,0
 17:48:57.764,-1.71397,-1.12693,-0.0189647,0,0,0
 17:48:57.764,-1.71342,-1.12661,-0.0191005,0,0,0
 17:48:57.765,-1.71351,-1.12634,-0.019235,0,0,0
 17:48:57.765,-1.71365,-1.12662,-0.0193372,0,0,0
 17:48:57.766,-1.71435,-1.12689,-0.0194267,0,0,0
 17:48:57.766,-1.71499,-1.12709,-0.0194513,0,0,0
 17:48:57.767,-1.71504,-1.12725,-0.0195421,0,0,0
 17:48:57.767,-1.7151,-1.12741,-0.0196463,0,0,0
 17:48:57.768,-1.71516,-1.12815,-0.0196803,0,0,0
 17:48:57.768,-1.71525,-1.12893,-0.0197935,0,0,0
 17:48:57.769,-1.71588,-1.12971,-0.0198941,0,0,0
 17:48:57.769,-1.71712,-1.13049,-0.0199281,0,0,0
 17:48:57.770,-1.71781,-1.13126,-0.0200139,0,0,0
 17:48:57.771,-1.71847,-1.13137,-0.0200912,0,0,0
 17:48:57.771,-1.71964,-1.13148,-0.0201042,0,0,0
 17:48:57.771,-1.7202,-1.13166,-0.0201708,0,0,0
 17:48:57.772,-1.72075,-1.13247,-0.0202467,0,0,0
 17:48:57.772,-1.72079,-1.13327,-0.0203209,0,0,0
 17:48:57.773,-1.72142,-1.13339,-0.0204124,0,0,0
 17:48:57.773,-1.72205,-1.13353,-0.0205168,0,0,0
 17:48:57.774,-1.72204,-1.13433,-0.0205396,0,0,0
 17:48:57.774,-1.72143,-1.13505,-0.0205237,0,0,0
 17:48:57.775,-1.72083,-1.13512,-0.0205509,0,0,0
 17:48:57.775,-1.72025,-1.13464,-0.020622,0,0,0
 17:48:57.776,-1.71961,-1.13473,-0.0207299,0,0,0
 17:48:57.776,-1.71899,-1.13427,-0.0208683,0,0,0
 17:48:57.776,-1.71843,-1.13385,-0.0210056,0,0,0
 17:48:57.776,-1.71786,-1.13345,-0.0210367,0,0,0
 17:48:57.777,-1.7179,-1.13306,-0.0209877,0,0,0
 17:48:57.777,-1.71797,-1.13207,-0.0210348,0,0,0
 17:48:57.778,-1.718,-1.13104,-0.0211484,0,0,0
 17:48:57.779,-1.7174,-1.13056,-0.0212325,0,0,0
 17:48:57.779,-1.71739,-1.13015,-0.0213428,0,0,0
 17:48:57.779,-1.71684,-1.12982,-0.0214789,0,0,0
 17:48:57.780,-1.71688,-1.13,-0.0215575,0,0,0
 17:48:57.780,-1.71693,-1.13072,-0.0215921,0,0,0
 17:48:57.781,-1.717,-1.13145,-0.0217057,0,0,0
 17:48:57.781,-1.71705,-1.1316,-0.021877,0,0,0
 17:48:57.782,-1.71711,-1.13233,-0.0219248,0,0,0
 17:48:57.782,-1.71718,-1.13247,-0.02203,0,0,0
 17:48:57.783,-1.7178,-1.13256,-0.0221615,0,0,0
 17:48:57.783,-1.71842,-1.13268,-0.022227,0,0,0
 17:48:57.784,-1.71851,-1.13281,-0.0222517,0,0,0
 17:48:57.784,-1.71803,-1.13291,-0.0222891,0,0,0
 17:48:57.785,-1.71803,-1.13296,-0.022448,0,0,0
 17:48:57.785,-1.71803,-1.13301,-0.0226207,0,0,0
 17:48:57.786,-1.71807,-1.13309,-0.022779,0,0,0
 17:48:57.786,-1.71755,-1.13379,-0.0229062,0,0,0
 17:48:57.787,-1.71708,-1.13455,-0.0229674,0,0,0
 17:48:57.787,-1.71715,-1.13472,-0.0230468,0,0,0
 17:48:57.788,-1.71713,-1.13535,-0.023084,0,0,0
 17:48:57.789,-1.71711,-1.136,-0.0230956,0,0,0
 17:48:57.789,-1.71645,-1.1361,-0.023126,0,0,0
 17:48:57.789,-1.71576,-1.13619,-0.0231576,0,0,0
 17:48:57.790,-1.71572,-1.13562,-0.0232174,0,0,0
 17:48:57.790,-1.71514,-1.13445,-0.0232931,0,0,0
 17:48:57.791,-1.71525,-1.13343,-0.0233799,0,0,0
 17:48:57.792,-1.71539,-1.13311,-0.0233953,0,0,0
 17:48:57.792,-1.71549,-1.13266,-0.0234776,0,0,0
 17:48:57.792,-1.71561,-1.13214,-0.0235987,0,0,0
 17:48:57.793,-1.71627,-1.13164,-0.0235883,0,0,0
 17:48:57.793,-1.71574,-1.13118,-0.0236051,0,0,0
 17:48:57.794,-1.71572,-1.13069,-0.0237026,0,0,0
 17:48:57.795,-1.71574,-1.13024,-0.0237862,0,0,0
 17:48:57.795,-1.71578,-1.12989,-0.0238691,0,0,0
 17:48:57.796,-1.71584,-1.1307,-0.0239698,0,0,0
 17:48:57.796,-1.71588,-1.13086,-0.0240358,0,0,0
 17:48:57.796,-1.71594,-1.13096,-0.0240085,0,0,0
 17:48:57.797,-1.71544,-1.13107,-0.0239806,0,0,0
 17:48:57.797,-1.71494,-1.13123,-0.0240722,0,0,0
 17:48:57.798,-1.71498,-1.13143,-0.0241254,0,0,0
 17:48:57.799,-1.71444,-1.13154,-0.0243105,0,0,0
 17:48:57.799,-1.71393,-1.13164,-0.0245216,0,0,0
 17:48:57.800,-1.71402,-1.13175,-0.0246658,0,0,0
 17:48:57.800,-1.71417,-1.13132,-0.0247995,0,0,0
 17:48:57.800,-1.71486,-1.13146,-0.024877,0,0,0
 17:48:57.801,-1.71551,-1.13159,-0.0249161,0,0,0
 17:48:57.802,-1.71614,-1.13165,-0.024942,0,0,0
 17:48:57.802,-1.71619,-1.13172,-0.024981,0,0,0
 17:48:57.802,-1.71566,-1.13238,-0.0249764,0,0,0
 17:48:57.803,-1.71578,-1.13255,-0.0250274,0,0,0
 17:48:57.803,-1.71642,-1.13276,-0.0251328,0,0,0
 17:48:57.804,-1.71639,-1.13348,-0.0252101,0,0,0
 17:48:57.805,-1.71579,-1.1336,-0.025212,0,0,0
 17:48:57.805,-1.71637,-1.13372,-0.0252401,0,0,0
 17:48:57.806,-1.71645,-1.1344,-0.0253013,0,0,0
 17:48:57.806,-1.71711,-1.13447,-0.0254198,0,0,0
 17:48:57.806,-1.71713,-1.13397,-0.0255832,0,0,0
 17:48:57.807,-1.71776,-1.13354,-0.0257329,0,0,0
 17:48:57.808,-1.71839,-1.13314,-0.0258422,0,0,0
 17:48:57.808,-1.71841,-1.13221,-0.0258508,0,0,0
 17:48:57.809,-1.71838,-1.13179,-0.0258693,0,0,0
 17:48:57.809,-1.71836,-1.1308,-0.0259311,0,0,0
 17:48:57.809,-1.71891,-1.13047,-0.0259891,0,0,0
 17:48:57.810,-1.71772,-1.13006,-0.0260998,0,0,0
 17:48:57.811,-1.71718,-1.13016,-0.0262312,0,0,0
 17:48:57.811,-1.71673,-1.13031,-0.0262682,0,0,0
 17:48:57.812,-1.71631,-1.13054,-0.026357,0,0,0
 17:48:57.812,-1.71587,-1.13074,-0.0265131,0,0,0
 17:48:57.812,-1.71592,-1.13087,-0.026671,0,0,0
 17:48:57.813,-1.71537,-1.13099,-0.0267638,0,0,0
 17:48:57.813,-1.71538,-1.13107,-0.026817,0,0,0
 17:48:57.814,-1.7154,-1.13118,-0.0268571,0,0,0
 17:48:57.815,-1.71545,-1.13072,-0.0269137,0,0,0
 17:48:57.815,-1.71556,-1.13025,-0.027074,0,0,0
 17:48:57.815,-1.71568,-1.12984,-0.0271816,0,0,0
 17:48:57.816,-1.71575,-1.13011,-0.0271806,0,0,0
 17:48:57.816,-1.71524,-1.12982,-0.0273429,0,0,0
 17:48:57.817,-1.71473,-1.13056,-0.0274966,0,0,0
 17:48:57.818,-1.71426,-1.13065,-0.0275345,0,0,0
 17:48:57.818,-1.71376,-1.13078,-0.0275996,0,0,0
 17:48:57.818,-1.71326,-1.13097,-0.0277049,0,0,0
 17:48:57.819,-1.71337,-1.13175,-0.0277923,0,0,0
 17:48:57.819,-1.71352,-1.13252,-0.0278128,0,0,0
 17:48:57.820,-1.71367,-1.13324,-0.0277673,0,0,0
 17:48:57.821,-1.71382,-1.13396,-0.0278542,0,0,0
 17:48:57.821,-1.7139,-1.13412,-0.0280793,0,0,0
 17:48:57.822,-1.71396,-1.13423,-0.0282519,0,0,0
 17:48:57.822,-1.71343,-1.1337,-0.0283494,0,0,0
 17:48:57.822,-1.7135,-1.13321,-0.0285388,0,0,0
 17:48:57.823,-1.71356,-1.13218,-0.0287189,0,0,0
 17:48:57.824,-1.71361,-1.1312,-0.0287935,0,0,0
 17:48:57.824,-1.71368,-1.13077,-0.0288766,0,0,0
 17:48:57.825,-1.71377,-1.13029,-0.0289987,0,0,0
 17:48:57.825,-1.7138,-1.12983,-0.0291218,0,0,0
 17:48:57.825,-1.71384,-1.12942,-0.029192,0,0,0
 17:48:57.826,-1.71387,-1.12901,-0.0292488,0,0,0
 17:48:57.827,-1.7133,-1.12915,-0.0293025,0,0,0
 17:48:57.827,-1.71332,-1.12872,-0.0293995,0,0,0
 17:48:57.828,-1.71278,-1.12829,-0.0295221,0,0,0
 17:48:57.828,-1.71289,-1.12787,-0.0295507,0,0,0
 17:48:57.828,-1.713,-1.12746,-0.0296582,0,0,0
 17:48:57.829,-1.71309,-1.12766,-0.0298155,0,0,0
 17:48:57.829,-1.71373,-1.12731,-0.0299507,0,0,0
 17:48:57.830,-1.71324,-1.12751,-0.0299887,0,0,0
 17:48:57.831,-1.71272,-1.12769,-0.0300409,0,0,0
 17:48:57.831,-1.71223,-1.12789,-0.0301719,0,0,0
 17:48:57.832,-1.71174,-1.12813,-0.0303028,0,0,0
 17:48:57.832,-1.71177,-1.12833,-0.0304882,0,0,0
 17:48:57.832,-1.71187,-1.12852,-0.0307117,0,0,0
 17:48:57.833,-1.71202,-1.12875,-0.0308152,0,0,0
 17:48:57.834,-1.71274,-1.12898,-0.0308391,0,0,0
 17:48:57.834,-1.71223,-1.12855,-0.0308954,0,0,0
 17:48:57.834,-1.7123,-1.12809,-0.0310571,0,0,0
 17:48:57.835,-1.7118,-1.12763,-0.0312316,0,0,0
 17:48:57.835,-1.71187,-1.12723,-0.0313004,0,0,0
 17:48:57.836,-1.71133,-1.1269,-0.031397,0,0,0
 17:48:57.837,-1.71082,-1.12707,-0.0315813,0,0,0
 17:48:57.837,-1.71093,-1.12662,-0.0316494,0,0,0
 17:48:57.838,-1.71104,-1.12677,-0.0316207,0,0,0
 17:48:57.838,-1.71118,-1.12693,-0.0316575,0,0,0
 17:48:57.838,-1.71185,-1.12707,-0.0317746,0,0,0
 17:48:57.839,-1.71195,-1.12727,-0.0319182,0,0,0
 17:48:57.840,-1.71204,-1.1269,-0.0319735,0,0,0
 17:48:57.840,-1.71211,-1.12652,-0.0319366,0,0,0
 17:48:57.841,-1.71157,-1.12557,-0.0320494,0,0,0
 17:48:57.841,-1.71164,-1.12464,-0.0322675,0,0,0
 17:48:57.841,-1.71172,-1.12428,-0.0324012,0,0,0
 17:48:57.842,-1.71238,-1.12452,-0.0324251,0,0,0
 17:48:57.843,-1.71247,-1.12424,-0.0324667,0,0,0
 17:48:57.843,-1.71199,-1.12458,-0.0324643,0,0,0
 17:48:57.844,-1.71206,-1.12491,-0.0324496,0,0,0
 17:48:57.844,-1.71214,-1.12461,-0.032597,0,0,0
 17:48:57.845,-1.71167,-1.12546,-0.0327227,0,0,0
 17:48:57.845,-1.71118,-1.12632,-0.0327568,0,0,0
 17:48:57.845,-1.71067,-1.12655,-0.032822,0,0,0
 17:48:57.846,-1.71074,-1.12671,-0.0329267,0,0,0
 17:48:57.847,-1.71077,-1.12688,-0.0330322,0,0,0
 17:48:57.847,-1.71138,-1.12712,-0.0331117,0,0,0
 17:48:57.848,-1.71148,-1.12683,-0.0331935,0,0,0
 17:48:57.848,-1.7116,-1.12651,-0.0333143,0,0,0
 17:48:57.848,-1.71169,-1.12669,-0.0333788,0,0,0
 17:48:57.849,-1.71176,-1.12747,-0.0334398,0,0,0
 17:48:57.850,-1.71183,-1.12769,-0.0335444,0,0,0
 17:48:57.850,-1.71188,-1.12784,-0.0336762,0,0,0
 17:48:57.851,-1.71197,-1.12799,-0.0337277,0,0,0
 17:48:57.851,-1.71205,-1.12815,-0.0337527,0,0,0
 17:48:57.851,-1.71211,-1.12834,-0.0337522,0,0,0
 17:48:57.852,-1.71206,-1.1285,-0.0337675,0,0,0
 17:48:57.853,-1.71201,-1.12866,-0.0337828,0,0,0
 17:48:57.853,-1.71212,-1.12888,-0.0339266,0,0,0
 17:48:57.854,-1.71221,-1.12916,-0.0339918,0,0,0
 17:48:57.854,-1.71173,-1.12944,-0.034057,0,0,0
 17:48:57.855,-1.71175,-1.12956,-0.0341108,0,0,0
 17:48:57.855,-1.71179,-1.12965,-0.0341767,0,0,0
 17:48:57.856,-1.71184,-1.12973,-0.0342426,0,0,0
 17:48:57.856,-1.71188,-1.12982,-0.0343085,0,0,0
 17:48:57.857,-1.71201,-1.13001,-0.0343197,0,0,0
 17:48:57.857,-1.71213,-1.13021,-0.0343311,0,0,0
 17:48:57.858,-1.71168,-1.1304,-0.0343425,0,0,0
 17:48:57.858,-1.71175,-1.13002,-0.0344388,0,0,0
 17:48:57.859,-1.71181,-1.1296,-0.0345747,0,0,0
 17:48:57.859,-1.71187,-1.12919,-0.0347104,0,0,0
 17:48:57.860,-1.71184,-1.12934,-0.034765,0,0,0
 17:48:57.860,-1.71182,-1.12949,-0.0348196,0,0,0
 17:48:57.861,-1.7118,-1.12964,-0.0348742,0,0,0
 17:48:57.861,-1.71235,-1.12979,-0.0349289,0,0,0
 17:48:57.861,-1.7131,-1.13005,-0.0349791,0,0,0
 17:48:57.862,-1.71385,-1.13031,-0.0350293,0,0,0
 17:48:57.863,-1.71458,-1.13056,-0.0350796,0,0,0
 17:48:57.863,-1.71531,-1.13081,-0.03513,0,0,0
 17:48:57.864,-1.71603,-1.13106,-0.0351805,0,0,0
 17:48:57.864,-1.71618,-1.13131,-0.035231,0,0,0
 17:48:57.864,-1.71623,-1.13145,-0.0352568,0,0,0
 17:48:57.865,-1.71628,-1.13159,-0.0352827,0,0,0
 17:48:57.866,-1.71633,-1.13174,-0.0353086,0,0,0
 17:48:57.866,-1.71638,-1.13188,-0.0353345,0,0,0
 17:48:57.867,-1.71643,-1.13202,-0.0353605,0,0,0
 17:48:57.867,-1.71648,-1.13215,-0.0353865,0,0,0
 17:48:57.867,-1.71653,-1.13229,-0.0354126,0,0,0
 17:48:57.868,-1.71658,-1.13242,-0.0354387,0,0,0
 17:48:57.869,-1.71662,-1.13256,-0.0354649,0,0,0
 17:48:57.869,-1.71667,-1.13269,-0.0354911,0,0,0
 17:48:57.870,-1.71672,-1.13282,-0.0355173,0,0,0
 17:48:57.870,-1.71677,-1.13295,-0.0355436,0,0,0
 17:48:57.871,-1.71681,-1.13308,-0.0355699,0,0,0
 17:48:57.871,-1.71686,-1.1332,-0.0355962,0,0,0
 17:48:57.872,-1.7169,-1.13333,-0.0356226,0,0,0
 17:48:57.872,-1.71695,-1.13345,-0.035649,0,0,0
 17:48:57.873,-1.71699,-1.13358,-0.0356755,0,0,0
 17:48:57.873,-1.71703,-1.1337,-0.035702,0,0,0
 17:48:57.874,-1.71708,-1.13382,-0.0357285,0,0,0
 17:48:57.874,-1.71712,-1.13394,-0.0357551,0,0,0
 17:48:57.875,-1.71716,-1.13406,-0.0357817,0,0,0
 17:48:57.875,-1.71721,-1.13418,-0.0358083,0,0,0
 17:48:57.876,-1.71725,-1.13429,-0.035835,0,0,0
 17:48:57.876,-1.71729,-1.13441,-0.0358617,0,0,0
 17:48:57.877,-1.71733,-1.13452,-0.0358885,0,0,0
 17:48:57.877,-1.71737,-1.13463,-0.0359152,0,0,0
 17:48:57.877,-1.71741,-1.13474,-0.035942,0,0,0
 17:48:57.878,-1.71745,-1.13485,-0.0359689,0,0,0
 17:48:57.879,-1.71749,-1.13496,-0.0359958,0,0,0
 17:48:57.879,-1.71753,-1.13507,-0.0360227,0,0,0
 17:48:57.880,-1.71757,-1.13518,-0.0360496,0,0,0
 17:48:57.880,-1.7176,-1.13528,-0.0360766,0,0,0
 17:48:57.881,-1.71762,-1.136,-0.0360873,0,0,0
 17:48:57.881,-1.71764,-1.1367,-0.0360983,0,0,0
 17:48:57.882,-1.71765,-1.13732,-0.0361749,0,0,0
 17:48:57.882,-1.7177,-1.1374,-0.0361894,0,0,0
 17:48:57.883,-1.71774,-1.13748,-0.036204,0,0,0
 17:48:57.883,-1.71778,-1.13756,-0.0362185,0,0,0
 17:48:57.884,-1.71785,-1.13711,-0.0363158,0,0,0
 17:48:57.884,-1.71786,-1.13665,-0.0363481,0,0,0
 17:48:57.885,-1.71784,-1.13622,-0.0364209,0,0,0
 17:48:57.885,-1.71787,-1.13576,-0.0365319,0,0,0
 17:48:57.886,-1.71793,-1.13579,-0.0365982,0,0,0
 17:48:57.886,-1.71794,-1.13524,-0.036656,0,0,0
 17:48:57.887,-1.71792,-1.13527,-0.036803,0,0,0
 17:48:57.887,-1.71796,-1.13533,-0.0369226,0,0,0
 17:48:57.888,-1.71805,-1.1349,-0.0370181,0,0,0
 17:48:57.888,-1.71812,-1.13447,-0.037088,0,0,0
 17:48:57.889,-1.71813,-1.13516,-0.0371775,0,0,0
 17:48:57.889,-1.71876,-1.13473,-0.0373275,0,0,0
 17:48:57.890,-1.71883,-1.13428,-0.0374102,0,0,0
 17:48:57.890,-1.7189,-1.13385,-0.0374796,0,0,0
 17:48:57.891,-1.71897,-1.13345,-0.0376288,0,0,0
 17:48:57.891,-1.71897,-1.13362,-0.0377487,0,0,0
 17:48:57.892,-1.7184,-1.13377,-0.0377891,0,0,0
 17:48:57.892,-1.71843,-1.1339,-0.0378557,0,0,0
 17:48:57.893,-1.71848,-1.13456,-0.0379967,0,0,0
 17:48:57.893,-1.71852,-1.13461,-0.0380893,0,0,0
 17:48:57.893,-1.7191,-1.13467,-0.0380899,0,0,0
 17:48:57.894,-1.71973,-1.13535,-0.0381649,0,0,0
 17:48:57.895,-1.71921,-1.13542,-0.0383894,0,0,0
 17:48:57.895,-1.71924,-1.13493,-0.0385655,0,0,0
 17:48:57.896,-1.71983,-1.13516,-0.0385665,0,0,0
 17:48:57.896,-1.71983,-1.13482,-0.0386116,0,0,0
 17:48:57.897,-1.71989,-1.13497,-0.038743,0,0,0
 17:48:57.897,-1.71995,-1.13454,-0.038892,0,0,0
 17:48:57.898,-1.71935,-1.13466,-0.0388539,0,0,0
 17:48:57.898,-1.71932,-1.13471,-0.0388293,0,0,0
 17:48:57.899,-1.71929,-1.13477,-0.038897,0,0,0
 17:48:57.899,-1.71873,-1.1349,-0.0390301,0,0,0
 17:48:57.900,-1.71872,-1.13501,-0.0391508,0,0,0
 17:48:57.900,-1.71865,-1.13455,-0.0392109,0,0,0
 17:48:57.901,-1.71858,-1.13467,-0.0392406,0,0,0
 17:48:57.901,-1.71802,-1.13422,-0.0393909,0,0,0
 17:48:57.902,-1.71749,-1.13382,-0.0395537,0,0,0
 17:48:57.902,-1.71698,-1.13348,-0.0396236,0,0,0
 17:48:57.903,-1.71647,-1.13313,-0.0397199,0,0,0
 17:48:57.903,-1.71656,-1.13276,-0.0398553,0,0,0
 17:48:57.904,-1.71664,-1.13295,-0.0399204,0,0,0
 17:48:57.904,-1.71673,-1.13316,-0.0399193,0,0,0
 17:48:57.905,-1.71683,-1.13338,-0.0399317,0,0,0
 17:48:57.905,-1.7169,-1.13295,-0.0400014,0,0,0
 17:48:57.906,-1.71695,-1.13247,-0.0400447,0,0,0
 17:48:57.906,-1.71641,-1.13203,-0.0400617,0,0,0
 17:48:57.907,-1.71585,-1.13221,-0.040089,0,0,0
 17:48:57.907,-1.71587,-1.13244,-0.0401294,0,0,0
 17:48:57.908,-1.71592,-1.13202,-0.0401469,0,0,0
 17:48:57.908,-1.71595,-1.13216,-0.0401868,0,0,0
 17:48:57.909,-1.71655,-1.13176,-0.0402577,0,0,0
 17:48:57.909,-1.7166,-1.13194,-0.0403231,0,0,0
 17:48:57.909,-1.71609,-1.13206,-0.0403753,0,0,0
 17:48:57.910,-1.71613,-1.13215,-0.0403751,0,0,0
 17:48:57.911,-1.71614,-1.13229,-0.0404815,0,0,0
 17:48:57.911,-1.7162,-1.133,-0.0407019,0,0,0
 17:48:57.912,-1.71622,-1.13311,-0.0408351,0,0,0
 17:48:57.912,-1.71624,-1.13322,-0.0409286,0,0,0
 17:48:57.913,-1.71687,-1.13334,-0.0410475,0,0,0
 17:48:57.913,-1.71697,-1.13408,-0.041108,0,0,0
 17:48:57.914,-1.71638,-1.13366,-0.0411931,0,0,0
 17:48:57.914,-1.71571,-1.13321,-0.0412802,0,0,0
 17:48:57.915,-1.71563,-1.13333,-0.0413364,0,0,0
 17:48:57.915,-1.71555,-1.13343,-0.0413927,0,0,0
 17:48:57.916,-1.71496,-1.13351,-0.0414738,0,0,0
 17:48:57.916,-1.71502,-1.13415,-0.0415887,0,0,0
 17:48:57.917,-1.71507,-1.13426,-0.0416688,0,0,0
 17:48:57.917,-1.71509,-1.13497,-0.0417455,0,0,0
 17:48:57.918,-1.7151,-1.13566,-0.0419026,0,0,0
 17:48:57.918,-1.71515,-1.13575,-0.0420626,0,0,0
 17:48:57.919,-1.71514,-1.13528,-0.0421613,0,0,0
 17:48:57.919,-1.71518,-1.13542,-0.0422553,0,0,0
 17:48:57.920,-1.71465,-1.13495,-0.0424054,0,0,0
 17:48:57.920,-1.71475,-1.13446,-0.0424884,0,0,0
 17:48:57.921,-1.71535,-1.13402,-0.0424539,0,0,0
 17:48:57.921,-1.71596,-1.13364,-0.0425117,0,0,0
 17:48:57.922,-1.71603,-1.13321,-0.0425947,0,0,0
 17:48:57.922,-1.71614,-1.13333,-0.04262,0,0,0
 17:48:57.923,-1.71622,-1.13344,-0.0426192,0,0,0
 17:48:57.923,-1.71623,-1.13352,-0.0426731,0,0,0
 17:48:57.924,-1.71567,-1.13303,-0.0427835,0,0,0
 17:48:57.924,-1.71627,-1.13259,-0.0428942,0,0,0
 17:48:57.925,-1.71626,-1.13278,-0.0430017,0,0,0
 17:48:57.925,-1.71568,-1.13291,-0.0430821,0,0,0
 17:48:57.926,-1.71513,-1.13238,-0.0431527,0,0,0
 17:48:57.926,-1.71519,-1.13241,-0.043245,0,0,0
 17:48:57.927,-1.71525,-1.13306,-0.0433066,0,0,0
 17:48:57.927,-1.71535,-1.13379,-0.043394,0,0,0
 17:48:57.928,-1.71548,-1.13464,-0.043468,0,0,0
 17:48:57.928,-1.71557,-1.13546,-0.0435171,0,0,0
 17:48:57.929,-1.71561,-1.13613,-0.043554,0,0,0
 17:48:57.930,-1.71567,-1.13675,-0.0435771,0,0,0
 17:48:57.930,-1.71574,-1.13686,-0.0436172,0,0,0
 17:48:57.930,-1.71579,-1.13641,-0.0437681,0,0,0
 17:48:57.931,-1.71583,-1.13597,-0.0439321,0,0,0
 17:48:57.931,-1.71644,-1.13493,-0.0440736,0,0,0
 17:48:57.932,-1.71707,-1.13385,-0.0441347,0,0,0
 17:48:57.932,-1.71713,-1.1333,-0.0442175,0,0,0
 17:48:57.933,-1.71719,-1.1334,-0.0443096,0,0,0
 17:48:57.933,-1.71721,-1.13358,-0.04435,0,0,0
 17:48:57.934,-1.71726,-1.13379,-0.0443238,0,0,0
 17:48:57.934,-1.71675,-1.134,-0.0443899,0,0,0
 17:48:57.935,-1.71681,-1.13411,-0.0445089,0,0,0
 17:48:57.935,-1.71632,-1.13363,-0.0445785,0,0,0
 17:48:57.936,-1.71642,-1.13435,-0.0445602,0,0,0
 17:48:57.936,-1.71594,-1.13451,-0.0446655,0,0,0
 17:48:57.937,-1.71544,-1.13465,-0.0448375,0,0,0
 17:48:57.937,-1.7155,-1.13476,-0.044904,0,0,0
 17:48:57.938,-1.71496,-1.13488,-0.0449577,0,0,0
 17:48:57.938,-1.71439,-1.13499,-0.0450389,0,0,0
 17:48:57.939,-1.71443,-1.13453,-0.0451366,0,0,0
 17:48:57.939,-1.71447,-1.13403,-0.0452343,0,0,0
 17:48:57.940,-1.71509,-1.13412,-0.0452613,0,0,0
 17:48:57.940,-1.71515,-1.13362,-0.0453447,0,0,0
 17:48:57.941,-1.71524,-1.13373,-0.0454762,0,0,0
 17:48:57.941,-1.71478,-1.13383,-0.0455147,0,0,0
 17:48:57.942,-1.71551,-1.13396,-0.0455654,0,0,0
 17:48:57.942,-1.71565,-1.13351,-0.0457262,0,0,0
 17:48:57.943,-1.71574,-1.13361,-0.0458713,0,0,0
 17:48:57.943,-1.71581,-1.13373,-0.0458973,0,0,0
 17:48:57.944,-1.71588,-1.13388,-0.045897,0,0,0
 17:48:57.944,-1.71599,-1.13349,-0.0459793,0,0,0
 17:48:57.945,-1.71603,-1.13365,-0.0460067,0,0,0
 17:48:57.946,-1.71544,-1.13321,-0.0460658,0,0,0
 17:48:57.946,-1.71544,-1.13334,-0.0461333,0,0,0
 17:48:57.946,-1.71552,-1.13348,-0.0461858,0,0,0
 17:48:57.947,-1.71566,-1.13312,-0.0463205,0,0,0
 17:48:57.947,-1.71518,-1.13331,-0.0464917,0,0,0
 17:48:57.948,-1.71464,-1.13345,-0.0466248,0,0,0
 17:48:57.949,-1.71464,-1.13354,-0.0467191,0,0,0
 17:48:57.949,-1.7147,-1.13367,-0.0468124,0,0,0
 17:48:57.949,-1.71415,-1.13319,-0.0468969,0,0,0
 17:48:57.950,-1.71364,-1.1333,-0.0469765,0,0,0
 17:48:57.950,-1.71371,-1.13286,-0.0470862,0,0,0
 17:48:57.951,-1.7138,-1.13305,-0.0471653,0,0,0
 17:48:57.951,-1.71445,-1.13327,-0.0472188,0,0,0
 17:48:57.952,-1.7145,-1.1334,-0.0473252,0,0,0
 17:48:57.952,-1.71395,-1.13291,-0.0474627,0,0,0
 17:48:57.953,-1.714,-1.13243,-0.0475462,0,0,0
 17:48:57.953,-1.71403,-1.13257,-0.0476261,0,0,0
 17:48:57.954,-1.71346,-1.13272,-0.0477599,0,0,0
 17:48:57.954,-1.71347,-1.13228,-0.0478576,0,0,0
 17:48:57.955,-1.71416,-1.13244,-0.0478435,0,0,0
 17:48:57.955,-1.71432,-1.13259,-0.0479074,0,0,0
 17:48:57.956,-1.71444,-1.13219,-0.0480159,0,0,0
 17:48:57.956,-1.71445,-1.13237,-0.0481362,0,0,0
 17:48:57.957,-1.71442,-1.13197,-0.0482486,0,0,0
 17:48:57.957,-1.71444,-1.1316,-0.0483328,0,0,0
 17:48:57.958,-1.71394,-1.13177,-0.0483586,0,0,0
 17:48:57.959,-1.71404,-1.13187,-0.0484101,0,0,0
 17:48:57.959,-1.71353,-1.13196,-0.0485023,0,0,0
 17:48:57.959,-1.71354,-1.13207,-0.0485562,0,0,0
 17:48:57.960,-1.71356,-1.13276,-0.0486988,0,0,0
 17:48:57.960,-1.71362,-1.13286,-0.0488847,0,0,0
 17:48:57.961,-1.71366,-1.13291,-0.0489777,0,0,0
 17:48:57.962,-1.71372,-1.133,-0.0490179,0,0,0
 17:48:57.962,-1.71378,-1.13368,-0.0490404,0,0,0
 17:48:57.962,-1.71321,-1.13383,-0.0491083,0,0,0
 17:48:57.963,-1.71266,-1.13339,-0.0492199,0,0,0
 17:48:57.963,-1.71272,-1.13285,-0.0493564,0,0,0
 17:48:57.964,-1.7128,-1.13227,-0.0495056,0,0,0
 17:48:57.965,-1.71345,-1.1324,-0.0496244,0,0,0
 17:48:57.965,-1.71345,-1.13257,-0.0497056,0,0,0
 17:48:57.965,-1.7135,-1.13211,-0.0498821,0,0,0
 17:48:57.966,-1.71355,-1.13221,-0.0500415,0,0,0
 17:48:57.966,-1.71358,-1.13232,-0.0501746,0,0,0
 17:48:57.967,-1.71358,-1.13191,-0.050273,0,0,0
 17:48:57.967,-1.71305,-1.13154,-0.0503833,0,0,0
 17:48:57.968,-1.71258,-1.13171,-0.0505145,0,0,0
 17:48:57.968,-1.7127,-1.13189,-0.0506192,0,0,0
 17:48:57.969,-1.71281,-1.13206,-0.0506583,0,0,0
 17:48:57.969,-1.71349,-1.13221,-0.0507636,0,0,0
 17:48:57.970,-1.71419,-1.13232,-0.0509072,0,0,0
 17:48:57.970,-1.71436,-1.13246,-0.0509975,0,0,0
 17:48:57.971,-1.71448,-1.13259,-0.0512208,0,0,0
 17:48:57.972,-1.71453,-1.13268,-0.0513929,0,0,0
 17:48:57.972,-1.71454,-1.13277,-0.0514869,0,0,0
 17:48:57.972,-1.71456,-1.13292,-0.0515807,0,0,0
 17:48:57.973,-1.71459,-1.13367,-0.0516175,0,0,0
 17:48:57.973,-1.71522,-1.13385,-0.0516184,0,0,0
 17:48:57.974,-1.71584,-1.134,-0.0516192,0,0,0
 17:48:57.975,-1.7159,-1.13413,-0.0517123,0,0,0
 17:48:57.975,-1.71598,-1.13431,-0.0518575,0,0,0
 17:48:57.975,-1.71606,-1.13447,-0.0520294,0,0,0
 17:48:57.976,-1.71616,-1.13402,-0.0521515,0,0,0
 17:48:57.976,-1.71624,-1.1335,-0.0522206,0,0,0
 17:48:57.977,-1.7163,-1.13355,-0.05226,0,0,0
 17:48:57.978,-1.71637,-1.13365,-0.0523655,0,0,0
 17:48:57.978,-1.71586,-1.13382,-0.0524978,0,0,0
 17:48:57.979,-1.71593,-1.13344,-0.0526345,0,0,0
 17:48:57.979,-1.716,-1.13242,-0.0528276,0,0,0
 17:48:57.979,-1.71544,-1.13198,-0.0530043,0,0,0
 17:48:57.980,-1.71545,-1.13096,-0.0531458,0,0,0
 17:48:57.981,-1.71489,-1.13109,-0.0532519,0,0,0
 17:48:57.981,-1.71494,-1.1306,-0.0534538,0,0,0
 17:48:57.982,-1.715,-1.13068,-0.0536381,0,0,0
 17:48:57.982,-1.71507,-1.13085,-0.0537167,0,0,0
 17:48:57.982,-1.71455,-1.13105,-0.053822,0,0,0
 17:48:57.983,-1.71463,-1.13119,-0.0539536,0,0,0
 17:48:57.983,-1.7153,-1.13187,-0.0539747,0,0,0
 17:48:57.984,-1.71543,-1.13261,-0.053929,0,0,0
 17:48:57.985,-1.71551,-1.13337,-0.0539641,0,0,0
 17:48:57.985,-1.71555,-1.13355,-0.054084,0,0,0
 17:48:57.985,-1.71494,-1.13432,-0.0541487,0,0,0
 17:48:57.986,-1.71496,-1.13452,-0.0542034,0,0,0
 17:48:57.986,-1.715,-1.13469,-0.0542308,0,0,0
 17:48:57.987,-1.71504,-1.13421,-0.0542357,0,0,0
 17:48:57.988,-1.71569,-1.13371,-0.0543189,0,0,0
 17:48:57.988,-1.71582,-1.13381,-0.0545156,0,0,0
 17:48:57.988,-1.71594,-1.13332,-0.0546505,0,0,0
 17:48:57.989,-1.71543,-1.1334,-0.0546637,0,0,0
 17:48:57.989,-1.71488,-1.1335,-0.0546909,0,0,0
 17:48:57.990,-1.71435,-1.13311,-0.0547354,0,0,0
 17:48:57.991,-1.71437,-1.1327,-0.054873,0,0,0
 17:48:57.991,-1.71439,-1.13284,-0.0550458,0,0,0
 17:48:57.992,-1.71443,-1.13294,-0.0551523,0,0,0
 17:48:57.992,-1.71447,-1.13305,-0.0552458,0,0,0
 17:48:57.992,-1.71398,-1.13319,-0.0553384,0,0,0
 17:48:57.993,-1.71411,-1.13273,-0.0554073,0,0,0
 17:48:57.994,-1.71422,-1.13226,-0.0554765,0,0,0
 17:48:57.994,-1.71432,-1.13188,-0.0555328,0,0,0
 17:48:57.995,-1.71438,-1.13153,-0.0556031,0,0,0
 17:48:57.995,-1.71446,-1.13172,-0.0557214,0,0,0
 17:48:57.995,-1.71395,-1.1313,-0.0558441,0,0,0
 17:48:57.996,-1.71398,-1.13088,-0.0559546,0,0,0
 17:48:57.997,-1.71402,-1.13053,-0.0560116,0,0,0
 17:48:57.997,-1.71466,-1.13013,-0.056068,0,0,0
 17:48:57.998,-1.71532,-1.1297,-0.0561498,0,0,0
 17:48:57.998,-1.716,-1.12933,-0.0562044,0,0,0
 17:48:57.998,-1.71608,-1.12955,-0.0562556,0,0,0
 17:48:57.999,-1.71604,-1.12969,-0.0563894,0,0,0
 17:48:57.999,-1.71598,-1.12978,-0.0565236,0,0,0
 17:48:58.000,-1.71541,-1.12989,-0.0566294,0,0,0
 17:48:58.001,-1.71543,-1.12999,-0.0566556,0,0,0
 17:48:58.001,-1.71555,-1.13016,-0.0567059,0,0,0
 17:48:58.001,-1.71566,-1.13037,-0.0568888,0,0,0
 17:48:58.002,-1.71566,-1.13112,-0.0570711,0,0,0
 17:48:58.002,-1.71623,-1.13186,-0.0571609,0,0,0
 17:48:58.003,-1.71624,-1.13203,-0.0572543,0,0,0
 17:48:58.004,-1.71569,-1.13275,-0.0573832,0,0,0
 17:48:58.004,-1.71514,-1.13291,-0.0575428,0,0,0
 17:48:58.005,-1.71574,-1.13256,-0.0576665,0,0,0
 17:48:58.005,-1.71633,-1.13275,-0.0577335,0,0,0
 17:48:58.005,-1.71635,-1.13289,-0.0578398,0,0,0
 17:48:58.006,-1.71697,-1.13304,-0.0579588,0,0,0
 17:48:58.007,-1.71698,-1.13262,-0.0580825,0,0,0
 17:48:58.007,-1.71641,-1.13162,-0.0582105,0,0,0
 17:48:58.008,-1.71587,-1.1312,-0.0583601,0,0,0
 17:48:58.008,-1.71591,-1.13134,-0.0585317,0,0,0
 17:48:58.008,-1.7154,-1.13144,-0.0587159,0,0,0
 17:48:58.009,-1.7149,-1.13149,-0.058781,0,0,0
 17:48:58.010,-1.71497,-1.13098,-0.058771,0,0,0
 17:48:58.010,-1.71499,-1.13105,-0.058758,0,0,0
 17:48:58.011,-1.71501,-1.13111,-0.0588377,0,0,0
 17:48:58.011,-1.715,-1.13063,-0.0589751,0,0,0
 17:48:58.012,-1.71502,-1.13134,-0.059064,0,0,0
 17:48:58.012,-1.7151,-1.1315,-0.0591821,0,0,0
 17:48:58.013,-1.71521,-1.13106,-0.0592765,0,0,0
 17:48:58.013,-1.71468,-1.13058,-0.059333,0,0,0
 17:48:58.014,-1.71465,-1.13015,-0.0594046,0,0,0
 17:48:58.014,-1.71462,-1.1309,-0.0594949,0,0,0
 17:48:58.014,-1.71456,-1.13101,-0.0596033,0,0,0
 17:48:58.015,-1.71456,-1.13113,-0.0596703,0,0,0
 17:48:58.015,-1.71466,-1.13188,-0.0596652,0,0,0
 17:48:58.016,-1.71422,-1.13267,-0.0597123,0,0,0
 17:48:58.017,-1.71433,-1.13343,-0.0598002,0,0,0
 17:48:58.017,-1.71379,-1.1335,-0.0598804,0,0,0
 17:48:58.018,-1.71327,-1.13294,-0.0599109,0,0,0
 17:48:58.018,-1.71275,-1.13303,-0.0599112,0,0,0
 17:48:58.018,-1.71282,-1.13314,-0.059938,0,0,0
 17:48:58.019,-1.71232,-1.13268,-0.0600347,0,0,0
 17:48:58.020,-1.71236,-1.13217,-0.0601191,0,0,0
 17:48:58.020,-1.713,-1.13221,-0.0601722,0,0,0
 17:48:58.021,-1.71357,-1.1317,-0.0602572,0,0,0
 17:48:58.021,-1.71358,-1.13132,-0.0603422,0,0,0
 17:48:58.021,-1.71364,-1.13032,-0.060376,0,0,0
 17:48:58.022,-1.71375,-1.12985,-0.0604176,0,0,0
 17:48:58.023,-1.71382,-1.12936,-0.0604998,0,0,0
 17:48:58.023,-1.71382,-1.12946,-0.0605535,0,0,0
 17:48:58.024,-1.71382,-1.12959,-0.0606074,0,0,0
 17:48:58.024,-1.71327,-1.13036,-0.060683,0,0,0
 17:48:58.025,-1.71272,-1.13106,-0.060772,0,0,0
 17:48:58.025,-1.71278,-1.13227,-0.060804,0,0,0
 17:48:58.026,-1.71229,-1.13295,-0.0608265,0,0,0
 17:48:58.026,-1.71183,-1.13366,-0.0609013,0,0,0
 17:48:58.027,-1.71136,-1.13312,-0.0610899,0,0,0
 17:48:58.027,-1.7108,-1.13309,-0.0612371,0,0,0
 17:48:58.028,-1.71081,-1.13312,-0.0613184,0,0,0
 17:48:58.028,-1.71086,-1.13205,-0.0613936,0,0,0
 17:48:58.029,-1.71094,-1.13104,-0.0615733,0,0,0
 17:48:58.029,-1.71046,-1.13001,-0.0617793,0,0,0
 17:48:58.030,-1.71117,-1.12899,-0.0619705,0,0,0
 17:48:58.030,-1.71135,-1.12972,-0.0620295,0,0,0
 17:48:58.030,-1.71152,-1.12993,-0.0620534,0,0,0
 17:48:58.031,-1.71167,-1.13018,-0.0621043,0,0,0
 17:48:58.031,-1.71178,-1.13034,-0.0622222,0,0,0
 17:48:58.032,-1.71191,-1.13044,-0.0623656,0,0,0
 17:48:58.033,-1.71202,-1.13053,-0.0624699,0,0,0
 17:48:58.033,-1.71152,-1.13012,-0.0625396,0,0,0
 17:48:58.034,-1.71098,-1.13027,-0.0626594,0,0,0
 17:48:58.034,-1.71058,-1.13043,-0.0628687,0,0,0
 17:48:58.034,-1.71079,-1.13062,-0.0630768,0,0,0
 17:48:58.035,-1.71094,-1.13024,-0.0631849,0,0,0
 17:48:58.036,-1.71105,-1.13042,-0.0632237,0,0,0
 17:48:58.036,-1.71117,-1.13004,-0.063332,0,0,0
 17:48:58.037,-1.71067,-1.13022,-0.0634112,0,0,0
 17:48:58.037,-1.71075,-1.13037,-0.0634107,0,0,0
 17:48:58.037,-1.7109,-1.13046,-0.0634084,0,0,0
 17:48:58.038,-1.71105,-1.13111,-0.0633888,0,0,0
 17:48:58.039,-1.7106,-1.13122,-0.0634142,0,0,0
 17:48:58.039,-1.71124,-1.13134,-0.0636526,0,0,0
 17:48:58.040,-1.7119,-1.13146,-0.0638903,0,0,0
 17:48:58.040,-1.71204,-1.13217,-0.0640036,0,0,0
 17:48:58.041,-1.71213,-1.13232,-0.0641223,0,0,0
 17:48:58.041,-1.71162,-1.13248,-0.0642156,0,0,0
 17:48:58.042,-1.71109,-1.13207,-0.0642869,0,0,0
 17:48:58.042,-1.7106,-1.13165,-0.0643837,0,0,0
 17:48:58.043,-1.71071,-1.1312,-0.0645852,0,0,0
 17:48:58.043,-1.71023,-1.13129,-0.0647435,0,0,0
 17:48:58.044,-1.71093,-1.13142,-0.0648085,0,0,0
 17:48:58.044,-1.71169,-1.13101,-0.0648495,0,0,0
 17:48:58.045,-1.71183,-1.13004,-0.0649085,0,0,0
 17:48:58.045,-1.71131,-1.12966,-0.0650185,0,0,0
 17:48:58.046,-1.71139,-1.1293,-0.0650886,0,0,0
 17:48:58.046,-1.71145,-1.12892,-0.0651716,0,0,0
 17:48:58.047,-1.71094,-1.12795,-0.0652454,0,0,0
 17:48:58.047,-1.71099,-1.12696,-0.0653319,0,0,0
 17:48:58.049,-1.71109,-1.12713,-0.0654491,0,0,0
 17:48:58.049,-1.7112,-1.12727,-0.0655397,0,0,0
 17:48:58.049,-1.71189,-1.12802,-0.0656659,0,0,0
 17:48:58.050,-1.71141,-1.12879,-0.0658591,0,0,0
 17:48:58.050,-1.71152,-1.12953,-0.0659859,0,0,0
 17:48:58.050,-1.71169,-1.13082,-0.066028,0,0,0
 17:48:58.050,-1.71127,-1.131,-0.0661317,0,0,0
 17:48:58.051,-1.71134,-1.13002,-0.0662187,0,0,0
 17:48:58.052,-1.71139,-1.12961,-0.0662493,0,0,0
 17:48:58.052,-1.71147,-1.12921,-0.0663452,0,0,0
 17:48:58.053,-1.71217,-1.1288,-0.0665062,0,0,0
 17:48:58.053,-1.71228,-1.1278,-0.0666842,0,0,0
 17:48:58.054,-1.71177,-1.12739,-0.0668197,0,0,0
 17:48:58.054,-1.71185,-1.12693,-0.0669544,0,0,0
 17:48:58.055,-1.71197,-1.12646,-0.0670482,0,0,0
 17:48:58.055,-1.71154,-1.12612,-0.0671678,0,0,0
 17:48:58.056,-1.71161,-1.12579,-0.0672627,0,0,0
 17:48:58.056,-1.71164,-1.12545,-0.0673059,0,0,0
 17:48:58.057,-1.71166,-1.12505,-0.0673886,0,0,0
 17:48:58.057,-1.71173,-1.12522,-0.0674266,0,0,0
 17:48:58.058,-1.7124,-1.12598,-0.0674735,0,0,0
 17:48:58.058,-1.71249,-1.12619,-0.0675903,0,0,0
 17:48:58.059,-1.71259,-1.12703,-0.0676502,0,0,0
 17:48:58.059,-1.7127,-1.12734,-0.0677143,0,0,0
 17:48:58.060,-1.71224,-1.12761,-0.0678711,0,0,0
 17:48:58.060,-1.71291,-1.12781,-0.0680018,0,0,0
 17:48:58.061,-1.71301,-1.12743,-0.0680434,0,0,0
 17:48:58.061,-1.7131,-1.12703,-0.0680457,0,0,0
 17:48:58.062,-1.71321,-1.12669,-0.0680737,0,0,0
 17:48:58.062,-1.7133,-1.12694,-0.0681775,0,0,0
 17:48:58.063,-1.71397,-1.12657,-0.0682586,0,0,0
 17:48:58.063,-1.71409,-1.12623,-0.0682992,0,0,0
 17:48:58.064,-1.71479,-1.12648,-0.068428,0,0,0
 17:48:58.064,-1.71543,-1.12613,-0.0686152,0,0,0
 17:48:58.065,-1.71549,-1.12573,-0.0687091,0,0,0
 17:48:58.065,-1.71555,-1.12528,-0.0687898,0,0,0
 17:48:58.066,-1.71618,-1.12486,-0.0689237,0,0,0
 17:48:58.066,-1.71566,-1.12569,-0.0689833,0,0,0
 17:48:58.067,-1.71514,-1.12597,-0.0690871,0,0,0
 17:48:58.067,-1.7152,-1.12622,-0.0691515,0,0,0
 17:48:58.068,-1.71527,-1.12648,-0.0691756,0,0,0
 17:48:58.068,-1.71537,-1.12678,-0.0692393,0,0,0
 17:48:58.069,-1.71547,-1.12645,-0.0692671,0,0,0
 17:48:58.069,-1.71495,-1.126,-0.0692823,0,0,0
 17:48:58.070,-1.71443,-1.12552,-0.0692839,0,0,0
 17:48:58.070,-1.71452,-1.12515,-0.0693378,0,0,0
 17:48:58.071,-1.71458,-1.12541,-0.0694549,0,0,0
 17:48:58.071,-1.71459,-1.12567,-0.0695731,0,0,0
 17:48:58.072,-1.71459,-1.1259,-0.0696916,0,0,0
 17:48:58.072,-1.71462,-1.12613,-0.0698227,0,0,0
 17:48:58.073,-1.71465,-1.1263,-0.0698612,0,0,0
 17:48:58.073,-1.71531,-1.12646,-0.0698587,0,0,0
 17:48:58.074,-1.71535,-1.12605,-0.0700197,0,0,0
 17:48:58.074,-1.7153,-1.12565,-0.0702224,0,0,0
 17:48:58.075,-1.7147,-1.12584,-0.0702753,0,0,0
 17:48:58.075,-1.71477,-1.12602,-0.0703124,0,0,0
 17:48:58.076,-1.71427,-1.12619,-0.0703896,0,0,0
 17:48:58.076,-1.71427,-1.1258,-0.0705255,0,0,0
 17:48:58.077,-1.71429,-1.12545,-0.0706473,0,0,0
 17:48:58.077,-1.71435,-1.12456,-0.0708251,0,0,0
 17:48:58.078,-1.71439,-1.1248,-0.0710351,0,0,0
 17:48:58.078,-1.71443,-1.125,-0.0711391,0,0,0
 17:48:58.079,-1.71387,-1.12463,-0.0711683,0,0,0
 17:48:58.079,-1.71338,-1.12432,-0.0712357,0,0,0
 17:48:58.080,-1.71348,-1.12401,-0.0713028,0,0,0
 17:48:58.080,-1.7136,-1.12426,-0.0713651,0,0,0
 17:48:58.081,-1.71433,-1.12454,-0.0714269,0,0,0
 17:48:58.081,-1.7144,-1.12541,-0.0715129,0,0,0
 17:48:58.082,-1.71385,-1.12682,-0.0716231,0,0,0
 17:48:58.082,-1.71329,-1.12704,-0.0717284,0,0,0
 17:48:58.083,-1.71279,-1.12786,-0.0717889,0,0,0
 17:48:58.083,-1.71229,-1.12807,-0.0718535,0,0,0
 17:48:58.084,-1.71233,-1.12824,-0.0719324,0,0,0
 17:48:58.084,-1.71236,-1.12895,-0.072008,0,0,0
 17:48:58.085,-1.7124,-1.12965,-0.0720835,0,0,0
 17:48:58.085,-1.71302,-1.13033,-0.0721326,0,0,0
 17:48:58.086,-1.7131,-1.13045,-0.0721847,0,0,0
 17:48:58.086,-1.7132,-1.13007,-0.0722271,0,0,0
 17:48:58.087,-1.71386,-1.12974,-0.0723492,0,0,0
 17:48:58.087,-1.71451,-1.1294,-0.0725767,0,0,0
 17:48:58.088,-1.71454,-1.12962,-0.0727218,0,0,0
 17:48:58.088,-1.71453,-1.12921,-0.0728058,0,0,0
 17:48:58.089,-1.71454,-1.12873,-0.0728494,0,0,0
 17:48:58.089,-1.71458,-1.12883,-0.072888,0,0,0
 17:48:58.090,-1.71461,-1.12958,-0.0729102,0,0,0
 17:48:58.090,-1.7152,-1.12975,-0.07295,0,0,0
 17:48:58.091,-1.71523,-1.13048,-0.073065,0,0,0
 17:48:58.091,-1.71529,-1.13062,-0.073183,0,0,0
 17:48:58.092,-1.71472,-1.13077,-0.07325,0,0,0
 17:48:58.092,-1.71471,-1.13094,-0.0733307,0,0,0
 17:48:58.093,-1.71473,-1.13164,-0.0733406,0,0,0
 17:48:58.093,-1.71473,-1.13171,-0.0733944,0,0,0
 17:48:58.094,-1.7142,-1.13236,-0.0735092,0,0,0
 17:48:58.094,-1.71425,-1.13301,-0.0735847,0,0,0
 17:48:58.095,-1.7143,-1.13371,-0.0736077,0,0,0
 17:48:58.095,-1.71437,-1.13329,-0.0736781,0,0,0
 17:48:58.096,-1.71441,-1.13347,-0.0737314,0,0,0
 17:48:58.096,-1.71442,-1.13301,-0.0737768,0,0,0
 17:48:58.097,-1.71445,-1.13195,-0.0738647,0,0,0
 17:48:58.097,-1.71449,-1.13148,-0.073988,0,0,0
 17:48:58.098,-1.71403,-1.13103,-0.0741092,0,0,0
 17:48:58.098,-1.7136,-1.13059,-0.0742298,0,0,0
 17:48:58.099,-1.71369,-1.13074,-0.0743341,0,0,0
 17:48:58.100,-1.71374,-1.13093,-0.0744135,0,0,0
 17:48:58.100,-1.71438,-1.1317,-0.0744486,0,0,0
 17:48:58.100,-1.71446,-1.13184,-0.0744744,0,0,0
 17:48:58.101,-1.71448,-1.13199,-0.0744884,0,0,0
 17:48:58.101,-1.71391,-1.13219,-0.0745557,0,0,0
 17:48:58.102,-1.71391,-1.13229,-0.0746499,0,0,0
 17:48:58.102,-1.71392,-1.13236,-0.0747698,0,0,0
 17:48:58.103,-1.71393,-1.13196,-0.0748675,0,0,0
 17:48:58.103,-1.71394,-1.13272,-0.0749307,0,0,0
 17:48:58.104,-1.71397,-1.13283,-0.0750898,0,0,0
 17:48:58.104,-1.71467,-1.13295,-0.0752207,0,0,0
 17:48:58.105,-1.71477,-1.13307,-0.0752329,0,0,0
 17:48:58.105,-1.71481,-1.13321,-0.075154,0,0,0
 17:48:58.106,-1.71421,-1.13332,-0.0751693,0,0,0
 17:48:58.106,-1.71366,-1.13342,-0.0753158,0,0,0
 17:48:58.107,-1.71315,-1.13349,-0.0754351,0,0,0
 17:48:58.107,-1.71323,-1.133,-0.0754918,0,0,0
 17:48:58.108,-1.71329,-1.1331,-0.0755716,0,0,0
 17:48:58.108,-1.71329,-1.13263,-0.0756702,0,0,0
 17:48:58.109,-1.71392,-1.13281,-0.075724,0,0,0
 17:48:58.109,-1.7146,-1.1324,-0.0758063,0,0,0
 17:48:58.110,-1.71469,-1.13197,-0.0759152,0,0,0
 17:48:58.110,-1.71475,-1.13151,-0.0759981,0,0,0
 17:48:58.111,-1.71421,-1.13101,-0.0760813,0,0,0
 17:48:58.111,-1.71427,-1.13111,-0.0761338,0,0,0
 17:48:58.112,-1.71493,-1.13128,-0.0762122,0,0,0
 17:48:58.112,-1.71496,-1.1315,-0.0762262,0,0,0
 17:48:58.113,-1.71497,-1.13236,-0.0762634,0,0,0
 17:48:58.113,-1.71618,-1.13316,-0.0763787,0,0,0
 17:48:58.114,-1.71623,-1.13274,-0.0765548,0,0,0
 17:48:58.114,-1.71624,-1.13232,-0.0766526,0,0,0
 17:48:58.115,-1.7163,-1.13249,-0.0766655,0,0,0
 17:48:58.115,-1.71637,-1.13258,-0.0767174,0,0,0
 17:48:58.116,-1.71646,-1.13323,-0.0768177,0,0,0
 17:48:58.116,-1.71652,-1.13275,-0.0769005,0,0,0
 17:48:58.117,-1.71659,-1.13285,-0.0770319,0,0,0
 17:48:58.117,-1.71665,-1.133,-0.077283,0,0,0
 17:48:58.118,-1.71674,-1.13261,-0.0774578,0,0,0
 17:48:58.118,-1.71623,-1.13278,-0.0774306,0,0,0
 17:48:58.119,-1.71631,-1.13296,-0.0773774,0,0,0
 17:48:58.119,-1.71572,-1.13306,-0.0774054,0,0,0
 17:48:58.120,-1.71454,-1.13254,-0.0774643,0,0,0
 17:48:58.120,-1.71407,-1.13148,-0.0776032,0,0,0
 17:48:58.121,-1.71415,-1.12984,-0.077905,0,0,0
 17:48:58.121,-1.71363,-1.12946,-0.0781464,0,0,0
 17:48:58.122,-1.71374,-1.12911,-0.0783075,0,0,0
 17:48:58.122,-1.71384,-1.12817,-0.0784461,0,0,0
 17:48:58.123,-1.71391,-1.1273,-0.0784924,0,0,0
 17:48:58.123,-1.71403,-1.12703,-0.0785332,0,0,0
 17:48:58.124,-1.7136,-1.12667,-0.0785736,0,0,0
 17:48:58.124,-1.7137,-1.1263,-0.0786018,0,0,0
 17:48:58.125,-1.71318,-1.12707,-0.078702,0,0,0
 17:48:58.125,-1.71328,-1.12725,-0.0788188,0,0,0
 17:48:58.126,-1.71342,-1.12804,-0.078838,0,0,0
 17:48:58.126,-1.7135,-1.12882,-0.0788462,0,0,0
 17:48:58.127,-1.71355,-1.1296,-0.0789742,0,0,0
 17:48:58.127,-1.7142,-1.12981,-0.0790267,0,0,0
 17:48:58.128,-1.71427,-1.13059,-0.0790483,0,0,0
 17:48:58.128,-1.71375,-1.13131,-0.0791236,0,0,0
 17:48:58.129,-1.71324,-1.1314,-0.0792158,0,0,0
 17:48:58.129,-1.71327,-1.13092,-0.0793128,0,0,0
 17:48:58.130,-1.7133,-1.13109,-0.0793925,0,0,0
 17:48:58.130,-1.71336,-1.13186,-0.0794812,0,0,0
 17:48:58.131,-1.71282,-1.132,-0.0795878,0,0,0
 17:48:58.132,-1.71227,-1.13216,-0.0796685,0,0,0
 17:48:58.132,-1.71231,-1.13232,-0.0797886,0,0,0
 17:48:58.132,-1.71236,-1.13302,-0.079878,0,0,0
 17:48:58.133,-1.71245,-1.13197,-0.0799386,0,0,0
 17:48:58.133,-1.71256,-1.13095,-0.0800645,0,0,0
 17:48:58.134,-1.71204,-1.12986,-0.0802709,0,0,0
 17:48:58.134,-1.71152,-1.12821,-0.0805069,0,0,0
 17:48:58.135,-1.71158,-1.12719,-0.0806988,0,0,0
 17:48:58.135,-1.7111,-1.12678,-0.0807673,0,0,0
 17:48:58.136,-1.71063,-1.12641,-0.0807959,0,0,0
 17:48:58.136,-1.71074,-1.12718,-0.0808561,0,0,0
 17:48:58.137,-1.7108,-1.12792,-0.0809175,0,0,0
 17:48:58.137,-1.71085,-1.12817,-0.0809438,0,0,0
 17:48:58.138,-1.71032,-1.129,-0.0809405,0,0,0
 17:48:58.138,-1.71039,-1.12921,-0.0810064,0,0,0
 17:48:58.139,-1.71046,-1.12881,-0.0811291,0,0,0
 17:48:58.139,-1.71053,-1.12844,-0.0812122,0,0,0
 17:48:58.140,-1.71057,-1.12864,-0.0812654,0,0,0
 17:48:58.140,-1.71116,-1.12879,-0.0813458,0,0,0
 17:48:58.141,-1.71185,-1.12895,-0.0814237,0,0,0
 17:48:58.142,-1.71256,-1.12858,-0.0815447,0,0,0
 17:48:58.142,-1.71264,-1.12932,-0.0816058,0,0,0
 17:48:58.142,-1.71266,-1.13,-0.0816684,0,0,0
 17:48:58.143,-1.71265,-1.13007,-0.0818412,0,0,0
 17:48:58.143,-1.71271,-1.1302,-0.0819992,0,0,0
 17:48:58.144,-1.71278,-1.13091,-0.0820475,0,0,0
 17:48:58.144,-1.71341,-1.13161,-0.0820697,0,0,0
 17:48:58.145,-1.7141,-1.13229,-0.0821173,0,0,0
 17:48:58.145,-1.71422,-1.13298,-0.0821913,0,0,0
 17:48:58.146,-1.7149,-1.13313,-0.0822299,0,0,0
 17:48:58.146,-1.71496,-1.13323,-0.0823224,0,0,0
 17:48:58.147,-1.71551,-1.1327,-0.0825132,0,0,0
 17:48:58.148,-1.71544,-1.1322,-0.0825862,0,0,0
 17:48:58.148,-1.71488,-1.13172,-0.0825644,0,0,0
 17:48:58.148,-1.71381,-1.13185,-0.0825765,0,0,0
 17:48:58.149,-1.7139,-1.13144,-0.0826324,0,0,0
 17:48:58.149,-1.71397,-1.1316,-0.0827244,0,0,0
 17:48:58.150,-1.71404,-1.13167,-0.0828695,0,0,0
 17:48:58.150,-1.71414,-1.13115,-0.0830175,0,0,0
 17:48:58.151,-1.71421,-1.13068,-0.0830736,0,0,0
 17:48:58.151,-1.71423,-1.13033,-0.0831573,0,0,0
 17:48:58.151,-1.71426,-1.12999,-0.083281,0,0,0
 17:48:58.151,-1.71378,-1.12961,-0.0834027,0,0,0
 17:48:58.152,-1.71333,-1.13037,-0.0834625,0,0,0
 17:48:58.152,-1.71283,-1.13116,-0.0835112,0,0,0
 17:48:58.153,-1.71288,-1.13141,-0.0835516,0,0,0
 17:48:58.153,-1.71232,-1.13214,-0.0835492,0,0,0
 17:48:58.154,-1.7129,-1.1328,-0.0835998,0,0,0
 17:48:58.154,-1.71295,-1.13291,-0.0836272,0,0,0
 17:48:58.155,-1.71363,-1.13307,-0.0836136,0,0,0
 17:48:58.155,-1.71373,-1.13262,-0.0837228,0,0,0
 17:48:58.156,-1.71441,-1.13159,-0.0839013,0,0,0
 17:48:58.157,-1.71508,-1.13059,-0.0840534,0,0,0
 17:48:58.157,-1.71519,-1.13017,-0.0841878,0,0,0
 17:48:58.157,-1.71529,-1.13029,-0.0842522,0,0,0
 17:48:58.158,-1.71532,-1.13046,-0.0843442,0,0,0
 17:48:58.158,-1.71533,-1.1307,-0.0844245,0,0,0
 17:48:58.159,-1.71592,-1.1315,-0.0844873,0,0,0
 17:48:58.160,-1.71598,-1.13227,-0.0846284,0,0,0
 17:48:58.160,-1.71608,-1.13246,-0.0847728,0,0,0
 17:48:58.160,-1.71614,-1.13323,-0.0847155,0,0,0
 17:48:58.161,-1.7168,-1.13401,-0.084658,0,0,0
 17:48:58.161,-1.71679,-1.13525,-0.0846778,0,0,0
 17:48:58.162,-1.71681,-1.13645,-0.084724,0,0,0
 17:48:58.163,-1.7162,-1.13704,-0.0847758,0,0,0
 17:48:58.163,-1.71562,-1.13704,-0.0849237,0,0,0
 17:48:58.164,-1.71566,-1.13706,-0.0850705,0,0,0
 17:48:58.164,-1.71575,-1.13594,-0.0852108,0,0,0
 17:48:58.164,-1.71641,-1.1348,-0.0852583,0,0,0
 17:48:58.165,-1.71707,-1.13373,-0.0853319,0,0,0
 17:48:58.165,-1.71708,-1.1321,-0.0855167,0,0,0
 17:48:58.166,-1.71703,-1.13103,-0.0856979,0,0,0
 17:48:58.166,-1.71703,-1.12882,-0.0859382,0,0,0
 17:48:58.167,-1.71647,-1.12779,-0.0861433,0,0,0
 17:48:58.167,-1.71595,-1.12737,-0.0862907,0,0,0
 17:48:58.168,-1.71602,-1.12693,-0.0864113,0,0,0
 17:48:58.168,-1.71614,-1.12716,-0.0865136,0,0,0
 17:48:58.169,-1.71625,-1.12737,-0.086537,0,0,0
 17:48:58.169,-1.71633,-1.12871,-0.0864735,0,0,0
 17:48:58.170,-1.71635,-1.13001,-0.0865178,0,0,0
 17:48:58.170,-1.7158,-1.13072,-0.0866192,0,0,0
 17:48:58.171,-1.7158,-1.1314,-0.0866423,0,0,0
 17:48:58.171,-1.71525,-1.13212,-0.086665,0,0,0
 17:48:58.172,-1.71531,-1.13222,-0.0867437,0,0,0
 17:48:58.173,-1.716,-1.13173,-0.0868648,0,0,0
 17:48:58.173,-1.71606,-1.1313,-0.0869609,0,0,0
 17:48:58.173,-1.71668,-1.13207,-0.0869436,0,0,0
 17:48:58.174,-1.7167,-1.13283,-0.087046,0,0,0
 17:48:58.174,-1.7173,-1.13245,-0.0872097,0,0,0
 17:48:58.175,-1.71671,-1.13263,-0.08729,0,0,0
 17:48:58.176,-1.71671,-1.13276,-0.0873967,0,0,0
 17:48:58.176,-1.71615,-1.13292,-0.0874903,0,0,0
 17:48:58.176,-1.7162,-1.13305,-0.0875956,0,0,0
 17:48:58.177,-1.71627,-1.13372,-0.0876835,0,0,0
 17:48:58.177,-1.71633,-1.13385,-0.0878023,0,0,0
 17:48:58.178,-1.71701,-1.13345,-0.0879111,0,0,0
 17:48:58.179,-1.71765,-1.133,-0.0879141,0,0,0
 17:48:58.179,-1.71767,-1.13253,-0.0879316,0,0,0
 17:48:58.180,-1.71712,-1.13206,-0.0879617,0,0,0
 17:48:58.180,-1.71656,-1.13154,-0.0879919,0,0,0
 17:48:58.180,-1.71659,-1.13048,-0.0881452,0,0,0
 17:48:58.181,-1.716,-1.12948,-0.0883389,0,0,0
 17:48:58.181,-1.71604,-1.12848,-0.0885575,0,0,0
 17:48:58.182,-1.71553,-1.12749,-0.0887881,0,0,0
 17:48:58.183,-1.71561,-1.12654,-0.0889523,0,0,0
 17:48:58.183,-1.71566,-1.12618,-0.0890471,0,0,0
 17:48:58.183,-1.71571,-1.12581,-0.0890757,0,0,0
 17:48:58.184,-1.71514,-1.12546,-0.0891977,0,0,0
 17:48:58.184,-1.71511,-1.12509,-0.0893733,0,0,0
 17:48:58.185,-1.71505,-1.12468,-0.0895228,0,0,0
 17:48:58.186,-1.71507,-1.12542,-0.08961,0,0,0
 17:48:58.186,-1.71514,-1.12618,-0.0896296,0,0,0
 17:48:58.186,-1.71583,-1.1264,-0.0897454,0,0,0
 17:48:58.187,-1.71591,-1.12665,-0.0899014,0,0,0
 17:48:58.187,-1.71603,-1.1275,-0.0899734,0,0,0
 17:48:58.188,-1.71611,-1.12825,-0.0899668,0,0,0
 17:48:58.189,-1.7167,-1.12895,-0.0899887,0,0,0
 17:48:58.189,-1.71668,-1.12908,-0.0900152,0,0,0
 17:48:58.190,-1.71726,-1.12924,-0.0900281,0,0,0
 17:48:58.190,-1.71671,-1.12942,-0.0901333,0,0,0
 17:48:58.190,-1.71678,-1.1302,-0.090207,0,0,0
 17:48:58.191,-1.71626,-1.13039,-0.0902983,0,0,0
 17:48:58.192,-1.71633,-1.13054,-0.0903629,0,0,0
 17:48:58.192,-1.71586,-1.13015,-0.0904572,0,0,0
 17:48:58.193,-1.71596,-1.13035,-0.0905213,0,0,0
 17:48:58.193,-1.71547,-1.13166,-0.0905644,0,0,0
 17:48:58.193,-1.71555,-1.13237,-0.0906124,0,0,0
 17:48:58.194,-1.71505,-1.13303,-0.0906472,0,0,0
 17:48:58.195,-1.71512,-1.13316,-0.0907128,0,0,0
 17:48:58.195,-1.7146,-1.13388,-0.0907223,0,0,0
 17:48:58.196,-1.71467,-1.13343,-0.0908055,0,0,0
 17:48:58.196,-1.71475,-1.13295,-0.0908752,0,0,0
 17:48:58.196,-1.71537,-1.13191,-0.0909628,0,0,0
 17:48:58.197,-1.71545,-1.13146,-0.0910321,0,0,0
 17:48:58.197,-1.71556,-1.1304,-0.0911044,0,0,0
 17:48:58.198,-1.7156,-1.12991,-0.0911073,0,0,0
 17:48:58.199,-1.71614,-1.12948,-0.0911391,0,0,0
 17:48:58.199,-1.7155,-1.12904,-0.0912241,0,0,0
 17:48:58.200,-1.71554,-1.12921,-0.0913291,0,0,0
 17:48:58.200,-1.71502,-1.1294,-0.0913284,0,0,0
 17:48:58.200,-1.71564,-1.12957,-0.0913676,0,0,0
 17:48:58.201,-1.71566,-1.12974,-0.0914466,0,0,0
 17:48:58.202,-1.71573,-1.12932,-0.0915814,0,0,0
 17:48:58.202,-1.71524,-1.12944,-0.0917246,0,0,0
 17:48:58.203,-1.71534,-1.12959,-0.0918152,0,0,0
 17:48:58.203,-1.71484,-1.12976,-0.0918797,0,0,0
 17:48:58.203,-1.71493,-1.13,-0.0919447,0,0,0
 17:48:58.204,-1.7144,-1.1308,-0.0919804,0,0,0
 17:48:58.205,-1.71446,-1.13156,-0.0920026,0,0,0
 17:48:58.205,-1.71505,-1.13221,-0.0920258,0,0,0
 17:48:58.206,-1.71508,-1.13289,-0.0920224,0,0,0
 17:48:58.206,-1.71514,-1.13302,-0.0921019,0,0,0
 17:48:58.206,-1.71464,-1.1337,-0.0922034,0,0,0
 17:48:58.207,-1.71417,-1.13381,-0.0922293,0,0,0
 17:48:58.208,-1.71418,-1.13386,-0.0923365,0,0,0
 17:48:58.208,-1.71418,-1.1339,-0.0924837,0,0,0
 17:48:58.209,-1.71424,-1.13338,-0.0925672,0,0,0
 17:48:58.209,-1.71435,-1.13285,-0.0926359,0,0,0
 17:48:58.210,-1.71444,-1.13231,-0.0927315,0,0,0
 17:48:58.210,-1.71455,-1.1324,-0.0927964,0,0,0
 17:48:58.211,-1.71459,-1.13194,-0.0928536,0,0,0
 17:48:58.211,-1.71408,-1.13153,-0.09295,0,0,0
 17:48:58.212,-1.71357,-1.13107,-0.0930727,0,0,0
 17:48:58.212,-1.71364,-1.13057,-0.0932349,0,0,0
 17:48:58.213,-1.71368,-1.13011,-0.0932919,0,0,0
 17:48:58.213,-1.71368,-1.1303,-0.0933854,0,0,0
 17:48:58.213,-1.71372,-1.1299,-0.0935879,0,0,0
 17:48:58.214,-1.71382,-1.1295,-0.0937096,0,0,0
 17:48:58.215,-1.71444,-1.12849,-0.0938628,0,0,0
 17:48:58.215,-1.71447,-1.12805,-0.0939853,0,0,0
 17:48:58.216,-1.71448,-1.12758,-0.094055,0,0,0
 17:48:58.216,-1.71451,-1.12714,-0.0941111,0,0,0
 17:48:58.216,-1.7146,-1.12675,-0.0941524,0,0,0
 17:48:58.217,-1.71407,-1.12693,-0.0942039,0,0,0
 17:48:58.218,-1.71411,-1.12711,-0.0942556,0,0,0
 17:48:58.218,-1.71421,-1.12733,-0.0943592,0,0,0
 17:48:58.219,-1.71435,-1.12751,-0.0944881,0,0,0
 17:48:58.219,-1.71445,-1.12764,-0.0945251,0,0,0
 17:48:58.220,-1.71455,-1.12834,-0.0946641,0,0,0
 17:48:58.220,-1.71525,-1.12851,-0.0948861,0,0,0
 17:48:58.221,-1.71535,-1.12934,-0.094933,0,0,0
 17:48:58.221,-1.71541,-1.13014,-0.0950206,0,0,0
 17:48:58.222,-1.71547,-1.13028,-0.0951916,0,0,0
 17:48:58.222,-1.71555,-1.12984,-0.0953266,0,0,0
 17:48:58.223,-1.71558,-1.12999,-0.095432,0,0,0
 17:48:58.223,-1.71564,-1.13018,-0.0955371,0,0,0
 17:48:58.224,-1.71568,-1.13038,-0.0955893,0,0,0
 17:48:58.224,-1.71574,-1.13058,-0.0956285,0,0,0
 17:48:58.225,-1.71521,-1.13078,-0.0956677,0,0,0
 17:48:58.225,-1.71474,-1.13094,-0.0956661,0,0,0
 17:48:58.226,-1.7143,-1.13105,-0.0957033,0,0,0
 17:48:58.226,-1.71446,-1.13114,-0.0957798,0,0,0
 17:48:58.227,-1.71394,-1.13065,-0.0959422,0,0,0
 17:48:58.227,-1.71397,-1.12964,-0.0961356,0,0,0
 17:48:58.228,-1.71404,-1.12927,-0.0962447,0,0,0
 17:48:58.228,-1.71416,-1.12895,-0.0963128,0,0,0
 17:48:58.229,-1.71419,-1.12854,-0.0963959,0,0,0
 17:48:58.229,-1.71423,-1.1275,-0.0966014,0,0,0
 17:48:58.229,-1.71373,-1.12708,-0.096736,0,0,0
 17:48:58.230,-1.7138,-1.1267,-0.0968573,0,0,0
 17:48:58.231,-1.71326,-1.12632,-0.0970322,0,0,0
 17:48:58.231,-1.71334,-1.12651,-0.0971757,0,0,0
 17:48:58.232,-1.71282,-1.12609,-0.0972839,0,0,0
 17:48:58.232,-1.7129,-1.12572,-0.097352,0,0,0
 17:48:58.233,-1.71185,-1.12597,-0.0974424,0,0,0
 17:48:58.233,-1.71254,-1.12621,-0.0975457,0,0,0
 17:48:58.234,-1.71209,-1.12642,-0.0976088,0,0,0
 17:48:58.234,-1.71281,-1.12669,-0.0976982,0,0,0
 17:48:58.235,-1.7129,-1.12698,-0.0977626,0,0,0
 17:48:58.235,-1.71351,-1.1267,-0.0978188,0,0,0
 17:48:58.236,-1.71304,-1.12698,-0.0978563,0,0,0
 17:48:58.236,-1.71317,-1.12773,-0.0979288,0,0,0
 17:48:58.237,-1.71327,-1.12842,-0.0980946,0,0,0
 17:48:58.237,-1.71394,-1.12915,-0.0982212,0,0,0
 17:48:58.238,-1.71403,-1.1299,-0.0982153,0,0,0
 17:48:58.238,-1.71415,-1.13126,-0.0981789,0,0,0
 17:48:58.239,-1.71424,-1.13256,-0.0981966,0,0,0
 17:48:58.239,-1.71431,-1.13378,-0.0982408,0,0,0
 17:48:58.240,-1.71436,-1.13445,-0.0983167,0,0,0
 17:48:58.240,-1.71437,-1.13514,-0.0983677,0,0,0
 17:48:58.241,-1.71438,-1.13517,-0.0984487,0,0,0
 17:48:58.241,-1.71446,-1.13459,-0.0986379,0,0,0
 17:48:58.242,-1.71515,-1.13352,-0.0988295,0,0,0
 17:48:58.242,-1.71586,-1.13247,-0.0989414,0,0,0
 17:48:58.243,-1.7165,-1.13139,-0.0990936,0,0,0
 17:48:58.243,-1.71652,-1.12975,-0.0992772,0,0,0
 17:48:58.244,-1.71594,-1.12872,-0.099444,0,0,0
 17:48:58.244,-1.71595,-1.12827,-0.0995401,0,0,0
 17:48:58.245,-1.71593,-1.12721,-0.0996271,0,0,0
 17:48:58.245,-1.71592,-1.12676,-0.0997232,0,0,0
 17:48:58.245,-1.71596,-1.12701,-0.099907,0,0,0
 17:48:58.246,-1.71607,-1.12731,-0.100063,0,0,0
 17:48:58.247,-1.71616,-1.1275,-0.100113,0,0,0
 17:48:58.247,-1.7162,-1.12817,-0.1002,0,0,0
 17:48:58.248,-1.71626,-1.12824,-0.100383,0,0,0
 17:48:58.248,-1.71687,-1.12777,-0.100518,0,0,0
 17:48:58.248,-1.71632,-1.12679,-0.100617,0,0,0
 17:48:58.249,-1.71576,-1.12581,-0.100743,0,0,0
 17:48:58.250,-1.71577,-1.12483,-0.100868,0,0,0
 17:48:58.250,-1.7158,-1.12503,-0.100972,0,0,0
 17:48:58.251,-1.71582,-1.12523,-0.10109,0,0,0
 17:48:58.251,-1.71585,-1.12543,-0.101207,0,0,0
 17:48:58.252,-1.71649,-1.12679,-0.10125,0,0,0
 17:48:58.252,-1.71713,-1.12814,-0.101293,0,0,0
 17:48:58.253,-1.71718,-1.12948,-0.101336,0,0,0
 17:48:58.253,-1.71775,-1.13021,-0.101425,0,0,0
 17:48:58.254,-1.71829,-1.13146,-0.10155,0,0,0
 17:48:58.254,-1.71882,-1.13269,-0.101675,0,0,0
 17:48:58.255,-1.71878,-1.13391,-0.101801,0,0,0
 17:48:58.255,-1.71883,-1.13399,-0.101946,0,0,0
 17:48:58.256,-1.71888,-1.13406,-0.102091,0,0,0
 17:48:58.256,-1.71893,-1.13414,-0.102237,0,0,0
 17:48:58.257,-1.71841,-1.13421,-0.102382,0,0,0
 17:48:58.257,-1.71782,-1.13427,-0.102462,0,0,0
 17:48:58.258,-1.71724,-1.13434,-0.102543,0,0,0
 17:48:58.258,-1.71667,-1.1344,-0.102624,0,0,0
 17:48:58.259,-1.7161,-1.13446,-0.102704,0,0,0
 17:48:58.259,-1.71554,-1.13453,-0.102785,0,0,0
 17:48:58.260,-1.71498,-1.13459,-0.102865,0,0,0
 17:48:58.260,-1.71443,-1.13465,-0.102946,0,0,0
 17:48:58.261,-1.71389,-1.13471,-0.103027,0,0,0
 17:48:58.261,-1.71335,-1.13477,-0.103108,0,0,0
 17:48:58.261,-1.71282,-1.13483,-0.103188,0,0,0
 17:48:58.262,-1.71229,-1.13489,-0.103269,0,0,0
 17:48:58.263,-1.71176,-1.13495,-0.10335,0,0,0
 17:48:58.263,-1.71125,-1.135,-0.103431,0,0,0
 17:48:58.264,-1.71073,-1.13506,-0.103511,0,0,0
 17:48:58.264,-1.71023,-1.13512,-0.103592,0,0,0
 17:48:58.265,-1.70972,-1.13517,-0.103673,0,0,0
 17:48:58.265,-1.70923,-1.13523,-0.103754,0,0,0
 17:48:58.266,-1.70873,-1.13528,-0.103835,0,0,0
 17:48:58.266,-1.70824,-1.13534,-0.103916,0,0,0
 17:48:58.267,-1.70776,-1.13539,-0.103997,0,0,0
 17:48:58.267,-1.70728,-1.13544,-0.104077,0,0,0
 17:48:58.268,-1.70681,-1.1355,-0.104158,0,0,0
 17:48:58.268,-1.70634,-1.13555,-0.104239,0,0,0
 17:48:58.269,-1.70588,-1.1356,-0.10432,0,0,0
 17:48:58.269,-1.70542,-1.13565,-0.104401,0,0,0
 17:48:58.270,-1.70496,-1.1357,-0.104482,0,0,0
 17:48:58.270,-1.70451,-1.13575,-0.104563,0,0,0
 17:48:58.271,-1.70407,-1.1358,-0.104644,0,0,0
 17:48:58.271,-1.70363,-1.13585,-0.104725,0,0,0
 17:48:58.272,-1.70319,-1.1359,-0.104807,0,0,0
 17:48:58.272,-1.70276,-1.13595,-0.104888,0,0,0
 17:48:58.273,-1.70233,-1.13599,-0.104969,0,0,0
 17:48:58.273,-1.70191,-1.13604,-0.10505,0,0,0
 17:48:58.274,-1.70149,-1.13609,-0.105131,0,0,0
 17:48:58.274,-1.70107,-1.13613,-0.105212,0,0,0
 17:48:58.275,-1.70069,-1.13504,-0.105366,0,0,0
 17:48:58.275,-1.70031,-1.13397,-0.10552,0,0,0
 17:48:58.276,-1.69994,-1.1329,-0.105673,0,0,0
 17:48:58.276,-1.7002,-1.13141,-0.105869,0,0,0
 17:48:58.277,-1.70039,-1.13047,-0.106048,0,0,0
 17:48:58.277,-1.70058,-1.12954,-0.106228,0,0,0
 17:48:58.277,-1.70076,-1.12862,-0.106406,0,0,0
 17:48:58.278,-1.70094,-1.12771,-0.106585,0,0,0
 17:48:58.279,-1.70113,-1.12681,-0.106763,0,0,0
 17:48:58.279,-1.70134,-1.12641,-0.106977,0,0,0
 17:48:58.280,-1.70095,-1.12666,-0.107068,0,0,0
 17:48:58.280,-1.70115,-1.12694,-0.107106,0,0,0
 17:48:58.281,-1.70134,-1.12717,-0.107078,0,0,0
 17:48:58.281,-1.70156,-1.12798,-0.107073,0,0,0
 17:48:58.282,-1.70174,-1.12824,-0.107204,0,0,0
 17:48:58.282,-1.70195,-1.1291,-0.107344,0,0,0
 17:48:58.283,-1.70216,-1.12994,-0.107445,0,0,0
 17:48:58.283,-1.70238,-1.13068,-0.107479,0,0,0
 17:48:58.284,-1.70259,-1.13077,-0.107518,0,0,0
 17:48:58.284,-1.70279,-1.13148,-0.107539,0,0,0
 17:48:58.285,-1.70237,-1.13226,-0.107655,0,0,0
 17:48:58.285,-1.70197,-1.13359,-0.107793,0,0,0
 17:48:58.286,-1.70217,-1.13369,-0.107951,0,0,0
 17:48:58.286,-1.70239,-1.13379,-0.10803,0,0,0
 17:48:58.287,-1.7026,-1.13385,-0.108149,0,0,0
 17:48:58.287,-1.70334,-1.13336,-0.108233,0,0,0
 17:48:58.288,-1.70405,-1.13347,-0.108247,0,0,0
 17:48:58.288,-1.70417,-1.13298,-0.108358,0,0,0
 17:48:58.289,-1.70432,-1.13247,-0.108548,0,0,0
 17:48:58.289,-1.70443,-1.13256,-0.108654,0,0,0
 17:48:58.290,-1.70396,-1.13211,-0.10866,0,0,0
 17:48:58.290,-1.70407,-1.13167,-0.108717,0,0,0
 17:48:58.291,-1.70419,-1.1312,-0.108815,0,0,0
 17:48:58.291,-1.70433,-1.13132,-0.108947,0,0,0
 17:48:58.292,-1.70454,-1.13149,-0.109065,0,0,0
 17:48:58.292,-1.70474,-1.13173,-0.10913,0,0,0
 17:48:58.293,-1.70487,-1.13135,-0.109267,0,0,0
 17:48:58.293,-1.70439,-1.13087,-0.109378,0,0,0
 17:48:58.294,-1.70394,-1.12978,-0.109452,0,0,0
 17:48:58.294,-1.70348,-1.12932,-0.109561,0,0,0
 17:48:58.295,-1.70302,-1.12889,-0.109697,0,0,0
 17:48:58.295,-1.70321,-1.12849,-0.109858,0,0,0
 17:48:58.296,-1.70404,-1.1282,-0.109979,0,0,0
 17:48:58.296,-1.7049,-1.12853,-0.11008,0,0,0
 17:48:58.297,-1.70572,-1.12881,-0.110236,0,0,0
 17:48:58.297,-1.70649,-1.12901,-0.110419,0,0,0
 17:48:58.298,-1.70668,-1.12918,-0.110509,0,0,0
 17:48:58.298,-1.70681,-1.1299,-0.110557,0,0,0
 17:48:58.299,-1.7069,-1.13004,-0.11065,0,0,0
 17:48:58.299,-1.70637,-1.12966,-0.110668,0,0,0
 17:48:58.300,-1.70646,-1.12985,-0.110563,0,0,0
 17:48:58.300,-1.70773,-1.12997,-0.110549,0,0,0
 17:48:58.301,-1.70905,-1.13066,-0.110583,0,0,0
 17:48:58.301,-1.70985,-1.13141,-0.110642,0,0,0
 17:48:58.302,-1.71114,-1.13267,-0.110673,0,0,0
 17:48:58.302,-1.7117,-1.13271,-0.110768,0,0,0
 17:48:58.303,-1.71167,-1.13279,-0.110863,0,0,0
 17:48:58.303,-1.71114,-1.13288,-0.110944,0,0,0
 17:48:58.304,-1.71067,-1.13296,-0.111036,0,0,0
 17:48:58.304,-1.71019,-1.13304,-0.111089,0,0,0
 17:48:58.305,-1.71033,-1.13318,-0.111088,0,0,0
 17:48:58.305,-1.71045,-1.1333,-0.111153,0,0,0
 17:48:58.306,-1.71,-1.13345,-0.111259,0,0,0
 17:48:58.306,-1.71011,-1.13301,-0.111329,0,0,0
 17:48:58.307,-1.70966,-1.13251,-0.111399,0,0,0
 17:48:58.307,-1.7098,-1.13136,-0.111591,0,0,0
 17:48:58.308,-1.70882,-1.13025,-0.111742,0,0,0
 17:48:58.308,-1.70894,-1.12921,-0.111815,0,0,0
 17:48:58.309,-1.70847,-1.12884,-0.111871,0,0,0
 17:48:58.309,-1.70859,-1.12851,-0.111966,0,0,0
 17:48:58.310,-1.70873,-1.12819,-0.112061,0,0,0
 17:48:58.310,-1.70944,-1.12837,-0.112126,0,0,0
 17:48:58.311,-1.70899,-1.12854,-0.112217,0,0,0
 17:48:58.311,-1.70911,-1.12817,-0.112313,0,0,0
 17:48:58.312,-1.70922,-1.12838,-0.11243,0,0,0
 17:48:58.312,-1.70935,-1.12796,-0.112552,0,0,0
 17:48:58.313,-1.70941,-1.12814,-0.112618,0,0,0
 17:48:58.314,-1.70947,-1.12834,-0.112644,0,0,0
 17:48:58.314,-1.70959,-1.1291,-0.112639,0,0,0
 17:48:58.314,-1.71033,-1.12986,-0.112699,0,0,0
 17:48:58.315,-1.71107,-1.13123,-0.112782,0,0,0
 17:48:58.315,-1.71128,-1.13262,-0.112811,0,0,0
 17:48:58.316,-1.71146,-1.13399,-0.112814,0,0,0
 17:48:58.317,-1.71161,-1.13589,-0.112828,0,0,0
 17:48:58.317,-1.71113,-1.1377,-0.112949,0,0,0
 17:48:58.317,-1.71064,-1.13894,-0.113076,0,0,0
 17:48:58.318,-1.71073,-1.14013,-0.11311,0,0,0
 17:48:58.318,-1.71086,-1.14012,-0.113203,0,0,0
 17:48:58.319,-1.71156,-1.13895,-0.113358,0,0,0
 17:48:58.319,-1.71225,-1.13834,-0.113535,0,0,0
 17:48:58.320,-1.7135,-1.13723,-0.113663,0,0,0
 17:48:58.320,-1.7136,-1.13671,-0.113707,0,0,0
 17:48:58.321,-1.71361,-1.13618,-0.11382,0,0,0
 17:48:58.321,-1.71305,-1.13572,-0.113998,0,0,0
 17:48:58.322,-1.71195,-1.13582,-0.114119,0,0,0
 17:48:58.322,-1.71088,-1.13588,-0.114212,0,0,0
 17:48:58.323,-1.71038,-1.13588,-0.114293,0,0,0
 17:48:58.323,-1.70988,-1.1365,-0.114436,0,0,0
 17:48:58.324,-1.71117,-1.13661,-0.114555,0,0,0
 17:48:58.324,-1.71135,-1.13732,-0.114617,0,0,0
 17:48:58.325,-1.71149,-1.13744,-0.114657,0,0,0
 17:48:58.325,-1.71161,-1.13698,-0.114727,0,0,0
 17:48:58.326,-1.71109,-1.13589,-0.114856,0,0,0
 17:48:58.326,-1.71115,-1.1342,-0.115014,0,0,0
 17:48:58.327,-1.71065,-1.13251,-0.115146,0,0,0
 17:48:58.327,-1.71017,-1.13144,-0.115232,0,0,0
 17:48:58.328,-1.71028,-1.13101,-0.115315,0,0,0
 17:48:58.328,-1.71105,-1.13063,-0.115462,0,0,0
 17:48:58.329,-1.71179,-1.13025,-0.115596,0,0,0
 17:48:58.330,-1.7119,-1.1304,-0.115634,0,0,0
 17:48:58.330,-1.71204,-1.1305,-0.115646,0,0,0
 17:48:58.330,-1.71158,-1.13061,-0.115671,0,0,0
 17:48:58.331,-1.71107,-1.13026,-0.115781,0,0,0
 17:48:58.331,-1.71109,-1.13049,-0.115875,0,0,0
 17:48:58.332,-1.71115,-1.13066,-0.115981,0,0,0
 17:48:58.333,-1.71118,-1.1308,-0.116114,0,0,0
 17:48:58.333,-1.71181,-1.13207,-0.116212,0,0,0
 17:48:58.333,-1.71304,-1.13273,-0.116367,0,0,0
 17:48:58.334,-1.71375,-1.13345,-0.116494,0,0,0
 17:48:58.334,-1.71384,-1.13415,-0.116582,0,0,0
 17:48:58.335,-1.7133,-1.13427,-0.116663,0,0,0
 17:48:58.335,-1.71335,-1.13439,-0.11669,0,0,0
 17:48:58.336,-1.7128,-1.13388,-0.116709,0,0,0
 17:48:58.336,-1.71283,-1.1333,-0.11674,0,0,0
 17:48:58.337,-1.71289,-1.13338,-0.116833,0,0,0
 17:48:58.337,-1.71297,-1.133,-0.116983,0,0,0
 17:48:58.338,-1.71308,-1.13261,-0.117105,0,0,0
 17:48:58.338,-1.71321,-1.13221,-0.11732,0,0,0
 17:48:58.339,-1.71273,-1.13121,-0.117632,0,0,0
 17:48:58.340,-1.71332,-1.13072,-0.117756,0,0,0
 17:48:58.340,-1.71274,-1.13019,-0.117827,0,0,0
 17:48:58.340,-1.71226,-1.12972,-0.117988,0,0,0
 17:48:58.341,-1.71117,-1.12924,-0.118163,0,0,0
 17:48:58.341,-1.71068,-1.12819,-0.118289,0,0,0
 17:48:58.344,-1.71023,-1.12773,-0.118317,0,0,0
 17:48:58.344,-1.7098,-1.12671,-0.118454,0,0,0
 17:48:58.344,-1.70998,-1.12631,-0.118654,0,0,0
 17:48:58.344,-1.71073,-1.12655,-0.118822,0,0,0
 17:48:58.346,-1.71086,-1.12678,-0.118925,0,0,0
 17:48:58.346,-1.71088,-1.12813,-0.118971,0,0,0
 17:48:58.347,-1.71149,-1.12944,-0.118976,0,0,0
 17:48:58.347,-1.71213,-1.13076,-0.118995,0,0,0
 17:48:58.348,-1.71279,-1.13211,-0.119106,0,0,0
 17:48:58.348,-1.71341,-1.13284,-0.119182,0,0,0
 17:48:58.349,-1.71404,-1.13296,-0.119183,0,0,0
 17:48:58.349,-1.71418,-1.13361,-0.119177,0,0,0
 17:48:58.350,-1.71486,-1.13426,-0.119224,0,0,0
 17:48:58.350,-1.71433,-1.13439,-0.11941,0,0,0
 17:48:58.350,-1.71494,-1.13454,-0.119597,0,0,0
 17:48:58.351,-1.71499,-1.13466,-0.119716,0,0,0
 17:48:58.351,-1.71504,-1.1342,-0.119813,0,0,0
 17:48:58.352,-1.71571,-1.13432,-0.119866,0,0,0
 17:48:58.353,-1.71578,-1.1338,-0.120002,0,0,0
 17:48:58.353,-1.71521,-1.13326,-0.120166,0,0,0
 17:48:58.353,-1.71518,-1.13215,-0.120321,0,0,0
 17:48:58.354,-1.71459,-1.13166,-0.120406,0,0,0
 17:48:58.354,-1.7146,-1.13065,-0.12052,0,0,0
 17:48:58.355,-1.71408,-1.12961,-0.120633,0,0,0
 17:48:58.356,-1.71357,-1.12856,-0.120719,0,0,0
 17:48:58.356,-1.71307,-1.12757,-0.120818,0,0,0
 17:48:58.357,-1.71312,-1.1272,-0.12094,0,0,0
 17:48:58.357,-1.71321,-1.12687,-0.121035,0,0,0
 17:48:58.357,-1.7127,-1.12706,-0.121073,0,0,0
 17:48:58.358,-1.71271,-1.12722,-0.121153,0,0,0
 17:48:58.359,-1.71273,-1.12737,-0.121272,0,0,0
 17:48:58.359,-1.71343,-1.12691,-0.121418,0,0,0
 17:48:58.359,-1.71361,-1.12586,-0.121527,0,0,0
 17:48:58.360,-1.71431,-1.1249,-0.121611,0,0,0
 17:48:58.360,-1.71437,-1.12457,-0.121732,0,0,0
 17:48:58.361,-1.71448,-1.12423,-0.121878,0,0,0
 17:48:58.362,-1.71517,-1.12387,-0.121997,0,0,0
 17:48:58.362,-1.71526,-1.12352,-0.122076,0,0,0
 17:48:58.363,-1.71527,-1.12322,-0.122224,0,0,0
 17:48:58.363,-1.71537,-1.12357,-0.122287,0,0,0
 17:48:58.363,-1.71483,-1.12439,-0.122201,0,0,0
 17:48:58.364,-1.7143,-1.12521,-0.122195,0,0,0
 17:48:58.365,-1.71493,-1.12603,-0.122282,0,0,0
 17:48:58.365,-1.71499,-1.12621,-0.122359,0,0,0
 17:48:58.366,-1.71567,-1.12637,-0.122383,0,0,0
 17:48:58.366,-1.71577,-1.12655,-0.122446,0,0,0
 17:48:58.366,-1.71587,-1.12679,-0.122522,0,0,0
 17:48:58.367,-1.71645,-1.127,-0.122627,0,0,0
 17:48:58.367,-1.71583,-1.12716,-0.122747,0,0,0
 17:48:58.368,-1.71528,-1.1268,-0.122842,0,0,0
 17:48:58.369,-1.71537,-1.12699,-0.122932,0,0,0
 17:48:58.369,-1.71484,-1.12658,-0.12304,0,0,0
 17:48:58.369,-1.71488,-1.12677,-0.123052,0,0,0
 17:48:58.370,-1.71497,-1.12643,-0.123133,0,0,0
 17:48:58.370,-1.71453,-1.12611,-0.123226,0,0,0
 17:48:58.371,-1.71462,-1.12631,-0.123316,0,0,0
 17:48:58.372,-1.71407,-1.12589,-0.123451,0,0,0
 17:48:58.372,-1.71356,-1.12491,-0.123536,0,0,0
 17:48:58.373,-1.71302,-1.12447,-0.12363,0,0,0
 17:48:58.373,-1.71307,-1.12352,-0.123755,0,0,0
 17:48:58.373,-1.71317,-1.12318,-0.123822,0,0,0
 17:48:58.374,-1.7133,-1.12282,-0.123862,0,0,0
 17:48:58.375,-1.7134,-1.12241,-0.123968,0,0,0
 17:48:58.375,-1.71358,-1.12207,-0.124165,0,0,0
 17:48:58.375,-1.71374,-1.12236,-0.124305,0,0,0
 17:48:58.376,-1.7132,-1.12201,-0.124386,0,0,0
 17:48:58.376,-1.71269,-1.12168,-0.12444,0,0,0
 17:48:58.377,-1.7128,-1.12078,-0.12455,0,0,0
 17:48:58.378,-1.71292,-1.11992,-0.124673,0,0,0
 17:48:58.378,-1.71304,-1.1197,-0.124739,0,0,0
 17:48:58.379,-1.71321,-1.11955,-0.124803,0,0,0
 17:48:58.379,-1.71401,-1.12058,-0.124885,0,0,0
 17:48:58.379,-1.71415,-1.12208,-0.124872,0,0,0
 17:48:58.380,-1.71428,-1.12356,-0.12486,0,0,0
 17:48:58.381,-1.71438,-1.12501,-0.124875,0,0,0
 17:48:58.381,-1.71389,-1.12582,-0.124842,0,0,0
 17:48:58.382,-1.71342,-1.1266,-0.124888,0,0,0
 17:48:58.382,-1.71352,-1.1268,-0.124978,0,0,0
 17:48:58.383,-1.71363,-1.127,-0.125015,0,0,0
 17:48:58.383,-1.71378,-1.12667,-0.125029,0,0,0
 17:48:58.383,-1.7139,-1.12629,-0.125096,0,0,0
 17:48:58.384,-1.71401,-1.12586,-0.12519,0,0,0
 17:48:58.385,-1.71354,-1.12548,-0.125232,0,0,0
 17:48:58.385,-1.71307,-1.12458,-0.125276,0,0,0
 17:48:58.386,-1.71262,-1.12372,-0.125387,0,0,0
 17:48:58.386,-1.71216,-1.12227,-0.125541,0,0,0
 17:48:58.386,-1.71164,-1.12135,-0.125666,0,0,0
 17:48:58.387,-1.71174,-1.12048,-0.125763,0,0,0
 17:48:58.388,-1.71183,-1.12023,-0.12583,0,0,0
 17:48:58.388,-1.71194,-1.11992,-0.125883,0,0,0
 17:48:58.389,-1.71212,-1.11958,-0.126,0,0,0
 17:48:58.389,-1.71232,-1.11931,-0.12609,0,0,0
 17:48:58.389,-1.71245,-1.11848,-0.126106,0,0,0
 17:48:58.390,-1.71256,-1.11828,-0.126118,0,0,0
 17:48:58.391,-1.71206,-1.11807,-0.126185,0,0,0
 17:48:58.391,-1.71156,-1.11778,-0.12633,0,0,0
 17:48:58.392,-1.71108,-1.11805,-0.126432,0,0,0
 17:48:58.392,-1.71062,-1.11891,-0.12641,0,0,0
 17:48:58.392,-1.71081,-1.11979,-0.12644,0,0,0
 17:48:58.393,-1.711,-1.12067,-0.126496,0,0,0
 17:48:58.394,-1.71176,-1.12159,-0.126553,0,0,0
 17:48:58.394,-1.71189,-1.1219,-0.126615,0,0,0
 17:48:58.395,-1.71142,-1.12152,-0.126814,0,0,0
 17:48:58.395,-1.71084,-1.12107,-0.127001,0,0,0
 17:48:58.396,-1.71021,-1.12005,-0.127114,0,0,0
 17:48:58.396,-1.71023,-1.11914,-0.127199,0,0,0
 17:48:58.397,-1.71036,-1.1183,-0.127255,0,0,0
 17:48:58.397,-1.71173,-1.11809,-0.127226,0,0,0
 17:48:58.398,-1.7131,-1.11793,-0.12721,0,0,0
 17:48:58.398,-1.71385,-1.11892,-0.127213,0,0,0
 17:48:58.399,-1.71333,-1.11986,-0.127232,0,0,0
 17:48:58.399,-1.71219,-1.12072,-0.127292,0,0,0
 17:48:58.399,-1.71096,-1.12149,-0.127355,0,0,0
 17:48:58.400,-1.71032,-1.12223,-0.127378,0,0,0
 17:48:58.401,-1.71037,-1.12246,-0.127482,0,0,0
 17:48:58.401,-1.71235,-1.12215,-0.127664,0,0,0
 17:48:58.402,-1.71441,-1.12193,-0.127819,0,0,0
 17:48:58.402,-1.7158,-1.12242,-0.127905,0,0,0
 17:48:58.402,-1.71593,-1.12231,-0.127931,0,0,0
 17:48:58.403,-1.71479,-1.12262,-0.127982,0,0,0
 17:48:58.404,-1.71354,-1.12271,-0.128089,0,0,0
 17:48:58.404,-1.71223,-1.12216,-0.128201,0,0,0
 17:48:58.405,-1.71158,-1.12176,-0.128258,0,0,0
 17:48:58.405,-1.71221,-1.12203,-0.128269,0,0,0
 17:48:58.405,-1.71293,-1.12232,-0.128251,0,0,0
 17:48:58.406,-1.71371,-1.12262,-0.128271,0,0,0
 17:48:58.407,-1.71448,-1.12407,-0.128311,0,0,0
 17:48:58.407,-1.71462,-1.12494,-0.128329,0,0,0
 17:48:58.408,-1.71407,-1.1246,-0.128411,0,0,0
 17:48:58.408,-1.71351,-1.1236,-0.128577,0,0,0
 17:48:58.408,-1.71233,-1.12318,-0.128726,0,0,0
 17:48:58.409,-1.71115,-1.1222,-0.128892,0,0,0
 17:48:58.410,-1.71119,-1.12072,-0.129007,0,0,0
 17:48:58.410,-1.71135,-1.1199,-0.12909,0,0,0
 17:48:58.411,-1.71213,-1.11966,-0.129193,0,0,0
 17:48:58.411,-1.71287,-1.11999,-0.129254,0,0,0
 17:48:58.412,-1.71357,-1.12037,-0.129343,0,0,0
 17:48:58.412,-1.71367,-1.12075,-0.129458,0,0,0
 17:48:58.413,-1.71317,-1.12104,-0.129547,0,0,0
 17:48:58.413,-1.71265,-1.12126,-0.12961,0,0,0
 17:48:58.414,-1.71156,-1.12148,-0.12962,0,0,0
 17:48:58.414,-1.71163,-1.12229,-0.129614,0,0,0
 17:48:58.415,-1.71172,-1.12313,-0.129646,0,0,0
 17:48:58.415,-1.71184,-1.12401,-0.129705,0,0,0
 17:48:58.415,-1.71253,-1.12427,-0.129808,0,0,0
 17:48:58.416,-1.71332,-1.12511,-0.129878,0,0,0
 17:48:58.417,-1.71348,-1.1253,-0.129873,0,0,0
 17:48:58.417,-1.71418,-1.12431,-0.129957,0,0,0
 17:48:58.418,-1.71422,-1.12386,-0.130091,0,0,0
 17:48:58.418,-1.71367,-1.12287,-0.130216,0,0,0
 17:48:58.419,-1.71369,-1.12197,-0.130381,0,0,0
 17:48:58.419,-1.71376,-1.12169,-0.130513,0,0,0
 17:48:58.420,-1.71388,-1.12202,-0.130575,0,0,0
 17:48:58.420,-1.71459,-1.12174,-0.13064,0,0,0
 17:48:58.421,-1.71475,-1.12262,-0.130697,0,0,0
 17:48:58.421,-1.71426,-1.12298,-0.130786,0,0,0
 17:48:58.422,-1.7143,-1.12388,-0.130781,0,0,0
 17:48:58.422,-1.71378,-1.12417,-0.130858,0,0,0
 17:48:58.423,-1.71326,-1.12439,-0.130908,0,0,0
 17:48:58.423,-1.71329,-1.1251,-0.130943,0,0,0
 17:48:58.424,-1.71279,-1.12526,-0.131046,0,0,0
 17:48:58.424,-1.71287,-1.12492,-0.1311,0,0,0
 17:48:58.425,-1.71296,-1.12404,-0.131132,0,0,0
 17:48:58.425,-1.71249,-1.12256,-0.131325,0,0,0
 17:48:58.426,-1.7126,-1.12163,-0.131528,0,0,0
 17:48:58.426,-1.71212,-1.12071,-0.131691,0,0,0
 17:48:58.427,-1.7122,-1.11983,-0.131761,0,0,0
 17:48:58.427,-1.71221,-1.11898,-0.131767,0,0,0
 17:48:58.428,-1.71163,-1.11873,-0.131809,0,0,0
 17:48:58.428,-1.71166,-1.11848,-0.131916,0,0,0
 17:48:58.429,-1.71171,-1.11825,-0.13201,0,0,0
 17:48:58.429,-1.71171,-1.11855,-0.132114,0,0,0
 17:48:58.430,-1.71176,-1.11942,-0.132226,0,0,0
 17:48:58.430,-1.71185,-1.11973,-0.132275,0,0,0
 17:48:58.431,-1.71196,-1.12062,-0.132346,0,0,0
 17:48:58.431,-1.71195,-1.12091,-0.132411,0,0,0
 17:48:58.432,-1.71254,-1.12292,-0.132411,0,0,0
 17:48:58.432,-1.71199,-1.12493,-0.132438,0,0,0
 17:48:58.433,-1.712,-1.12639,-0.13247,0,0,0
 17:48:58.433,-1.71195,-1.12834,-0.132486,0,0,0
 17:48:58.434,-1.71192,-1.12963,-0.132441,0,0,0
 17:48:58.434,-1.71192,-1.13031,-0.132411,0,0,0
 17:48:58.435,-1.71195,-1.13093,-0.132527,0,0,0
 17:48:58.435,-1.71196,-1.131,-0.132714,0,0,0
 17:48:58.436,-1.71201,-1.13051,-0.132876,0,0,0
 17:48:58.436,-1.71272,-1.13002,-0.132997,0,0,0
 17:48:58.437,-1.71282,-1.12897,-0.133122,0,0,0
 17:48:58.437,-1.71283,-1.12737,-0.13328,0,0,0
 17:48:58.438,-1.71226,-1.12639,-0.133341,0,0,0
 17:48:58.438,-1.71171,-1.12542,-0.133427,0,0,0
 17:48:58.439,-1.71177,-1.125,-0.133588,0,0,0
 17:48:58.439,-1.71183,-1.12455,-0.133722,0,0,0
 17:48:58.440,-1.71192,-1.12419,-0.133817,0,0,0
 17:48:58.440,-1.71202,-1.12386,-0.133937,0,0,0
 17:48:58.441,-1.71212,-1.12407,-0.134053,0,0,0
 17:48:58.441,-1.71215,-1.12425,-0.134091,0,0,0
 17:48:58.442,-1.71226,-1.12447,-0.134101,0,0,0
 17:48:58.442,-1.71236,-1.12415,-0.134076,0,0,0
 17:48:58.443,-1.71243,-1.12385,-0.134064,0,0,0
 17:48:58.443,-1.7125,-1.12356,-0.134119,0,0,0
 17:48:58.444,-1.71258,-1.12323,-0.134226,0,0,0
 17:48:58.444,-1.71271,-1.12345,-0.134328,0,0,0
 17:48:58.445,-1.71224,-1.12366,-0.13443,0,0,0
 17:48:58.445,-1.71228,-1.12391,-0.134521,0,0,0
 17:48:58.446,-1.71226,-1.12415,-0.134521,0,0,0
 17:48:58.446,-1.71168,-1.12433,-0.134627,0,0,0
 17:48:58.447,-1.71174,-1.12445,-0.134823,0,0,0
 17:48:58.447,-1.71131,-1.1246,-0.134912,0,0,0
 17:48:58.448,-1.71086,-1.12537,-0.134931,0,0,0
 17:48:58.448,-1.71034,-1.12617,-0.134979,0,0,0
 17:48:58.449,-1.7104,-1.12699,-0.13508,0,0,0
 17:48:58.449,-1.71043,-1.12779,-0.135196,0,0,0
 17:48:58.450,-1.7105,-1.12859,-0.135297,0,0,0
 17:48:58.450,-1.71119,-1.12879,-0.135402,0,0,0
 17:48:58.451,-1.71131,-1.1289,-0.135545,0,0,0
 17:48:58.451,-1.71199,-1.12842,-0.13564,0,0,0
 17:48:58.452,-1.7126,-1.12849,-0.135692,0,0,0
 17:48:58.452,-1.71267,-1.12805,-0.135774,0,0,0
 17:48:58.453,-1.71275,-1.12713,-0.13586,0,0,0
 17:48:58.453,-1.71226,-1.12682,-0.135929,0,0,0
 17:48:58.454,-1.7123,-1.12647,-0.136037,0,0,0
 17:48:58.454,-1.71175,-1.12665,-0.136129,0,0,0
 17:48:58.455,-1.71125,-1.12682,-0.136194,0,0,0
 17:48:58.455,-1.71134,-1.12702,-0.136245,0,0,0
 17:48:58.456,-1.71146,-1.12722,-0.136362,0,0,0
 17:48:58.456,-1.711,-1.12791,-0.136488,0,0,0
 17:48:58.457,-1.71113,-1.12804,-0.136618,0,0,0
 17:48:58.457,-1.71066,-1.12819,-0.136682,0,0,0
 17:48:58.458,-1.71022,-1.12719,-0.136688,0,0,0
 17:48:58.458,-1.70971,-1.12619,-0.136748,0,0,0
 17:48:58.459,-1.70968,-1.1252,-0.136863,0,0,0
 17:48:58.459,-1.71028,-1.12363,-0.136994,0,0,0
 17:48:58.460,-1.7105,-1.12269,-0.137102,0,0,0
 17:48:58.460,-1.71073,-1.12177,-0.137196,0,0,0
 17:48:58.461,-1.71144,-1.12081,-0.137279,0,0,0
 17:48:58.461,-1.71154,-1.12046,-0.137425,0,0,0
 17:48:58.462,-1.71161,-1.1207,-0.137647,0,0,0
 17:48:58.462,-1.71169,-1.12098,-0.137749,0,0,0
 17:48:58.463,-1.71244,-1.1225,-0.137763,0,0,0
 17:48:58.463,-1.71315,-1.12342,-0.137781,0,0,0
 17:48:58.464,-1.71321,-1.12371,-0.137766,0,0,0
 17:48:58.464,-1.71267,-1.12507,-0.137743,0,0,0
 17:48:58.465,-1.71276,-1.12641,-0.137746,0,0,0
 17:48:58.465,-1.71285,-1.12715,-0.137911,0,0,0
 17:48:58.466,-1.71233,-1.12783,-0.138078,0,0,0
 17:48:58.466,-1.71181,-1.12852,-0.138126,0,0,0
 17:48:58.467,-1.71187,-1.1292,-0.138108,0,0,0
 17:48:58.467,-1.71195,-1.12989,-0.138129,0,0,0
 17:48:58.468,-1.71207,-1.13063,-0.138203,0,0,0
 17:48:58.468,-1.71156,-1.1308,-0.138243,0,0,0
 17:48:58.469,-1.71104,-1.13036,-0.138261,0,0,0
 17:48:58.469,-1.71046,-1.12931,-0.138376,0,0,0
 17:48:58.470,-1.70996,-1.12827,-0.138475,0,0,0
 17:48:58.470,-1.70956,-1.12667,-0.13851,0,0,0
 17:48:58.471,-1.70919,-1.12511,-0.138557,0,0,0
 17:48:58.471,-1.70879,-1.12357,-0.138698,0,0,0
 17:48:58.472,-1.70835,-1.12261,-0.138875,0,0,0
 17:48:58.472,-1.70797,-1.1217,-0.139036,0,0,0
 17:48:58.473,-1.70762,-1.12137,-0.139167,0,0,0
 17:48:58.473,-1.70717,-1.12102,-0.139287,0,0,0
 17:48:58.474,-1.70671,-1.12073,-0.139381,0,0,0
 17:48:58.474,-1.70685,-1.12048,-0.1395,0,0,0
 17:48:58.475,-1.707,-1.12075,-0.139589,0,0,0
 17:48:58.475,-1.7077,-1.12037,-0.139695,0,0,0
 17:48:58.476,-1.70723,-1.11995,-0.139748,0,0,0
 17:48:58.476,-1.70737,-1.11962,-0.139814,0,0,0
 17:48:58.477,-1.70755,-1.11934,-0.139879,0,0,0
 17:48:58.477,-1.70831,-1.11902,-0.13997,0,0,0
 17:48:58.478,-1.70848,-1.11924,-0.14011,0,0,0
 17:48:58.478,-1.70854,-1.11999,-0.14021,0,0,0
 17:48:58.479,-1.70857,-1.1202,-0.140261,0,0,0
 17:48:58.479,-1.70866,-1.1205,-0.140285,0,0,0
 17:48:58.480,-1.70933,-1.12141,-0.140331,0,0,0
 17:48:58.480,-1.70944,-1.12348,-0.140356,0,0,0
 17:48:58.481,-1.7101,-1.1249,-0.14036,0,0,0
 17:48:58.481,-1.7102,-1.12571,-0.14042,0,0,0
 17:48:58.482,-1.71147,-1.12647,-0.140572,0,0,0
 17:48:58.482,-1.71216,-1.12779,-0.140654,0,0,0
 17:48:58.483,-1.71223,-1.12908,-0.140698,0,0,0
 17:48:58.483,-1.71228,-1.1292,-0.14083,0,0,0
 17:48:58.484,-1.71171,-1.12936,-0.140937,0,0,0
 17:48:58.484,-1.71172,-1.13007,-0.140921,0,0,0
 17:48:58.485,-1.71175,-1.13023,-0.140922,0,0,0
 17:48:58.485,-1.71177,-1.13044,-0.140976,0,0,0
 17:48:58.486,-1.71122,-1.13058,-0.141096,0,0,0
 17:48:58.486,-1.7113,-1.1301,-0.141244,0,0,0
 17:48:58.487,-1.71137,-1.12963,-0.141327,0,0,0
 17:48:58.487,-1.71082,-1.12919,-0.141464,0,0,0
 17:48:58.488,-1.71025,-1.12872,-0.141588,0,0,0
 17:48:58.488,-1.70972,-1.12766,-0.141728,0,0,0
 17:48:58.489,-1.70925,-1.12718,-0.141862,0,0,0
 17:48:58.489,-1.7082,-1.12674,-0.141984,0,0,0
 17:48:58.490,-1.70829,-1.12576,-0.142096,0,0,0
 17:48:58.490,-1.70846,-1.12592,-0.142226,0,0,0
 17:48:58.491,-1.70857,-1.12543,-0.142333,0,0,0
 17:48:58.491,-1.70807,-1.12502,-0.142389,0,0,0
 17:48:58.492,-1.70764,-1.12529,-0.142545,0,0,0
 17:48:58.492,-1.70719,-1.12548,-0.142689,0,0,0
 17:48:58.493,-1.70733,-1.1256,-0.142699,0,0,0
 17:48:58.493,-1.70686,-1.12578,-0.14279,0,0,0
 17:48:58.494,-1.70753,-1.12601,-0.142869,0,0,0
 17:48:58.494,-1.70823,-1.12681,-0.142916,0,0,0
 17:48:58.495,-1.70895,-1.12761,-0.14295,0,0,0
 17:48:58.495,-1.70966,-1.12779,-0.143001,0,0,0
 17:48:58.496,-1.71035,-1.12905,-0.143004,0,0,0
 17:48:58.496,-1.71046,-1.13028,-0.143048,0,0,0
 17:48:58.497,-1.71053,-1.13087,-0.143162,0,0,0
 17:48:58.497,-1.71058,-1.13142,-0.143185,0,0,0
 17:48:58.498,-1.71067,-1.13258,-0.143124,0,0,0
 17:48:58.498,-1.71078,-1.13324,-0.143133,0,0,0
 17:48:58.499,-1.71093,-1.13331,-0.143304,0,0,0
 17:48:58.499,-1.71115,-1.13392,-0.143455,0,0,0
 17:48:58.500,-1.71132,-1.13403,-0.143533,0,0,0
 17:48:58.500,-1.71134,-1.1342,-0.143588,0,0,0
 17:48:58.501,-1.71136,-1.13375,-0.143661,0,0,0
 17:48:58.501,-1.71089,-1.13272,-0.143787,0,0,0
 17:48:58.502,-1.71045,-1.13225,-0.143962,0,0,0
 17:48:58.502,-1.70941,-1.13116,-0.144142,0,0,0
 17:48:58.503,-1.70947,-1.13006,-0.144256,0,0,0
 17:48:58.503,-1.70901,-1.12904,-0.144382,0,0,0
 17:48:58.504,-1.70915,-1.12865,-0.144556,0,0,0
 17:48:58.504,-1.70869,-1.12829,-0.144784,0,0,0
 17:48:58.505,-1.70822,-1.12791,-0.144933,0,0,0
 17:48:58.505,-1.70779,-1.12751,-0.145054,0,0,0
 17:48:58.506,-1.70737,-1.12709,-0.145215,0,0,0
 17:48:58.506,-1.70696,-1.12667,-0.145388,0,0,0
 17:48:58.507,-1.70655,-1.12622,-0.145508,0,0,0
 17:48:58.507,-1.70612,-1.12579,-0.145656,0,0,0
 17:48:58.508,-1.70621,-1.12544,-0.145805,0,0,0
 17:48:58.508,-1.70632,-1.12567,-0.14591,0,0,0
 17:48:58.509,-1.70703,-1.12532,-0.145964,0,0,0
 17:48:58.509,-1.70776,-1.12557,-0.145975,0,0,0
 17:48:58.510,-1.70845,-1.12636,-0.146023,0,0,0
 17:48:58.510,-1.7086,-1.12655,-0.146113,0,0,0
 17:48:58.511,-1.70876,-1.12675,-0.14619,0,0,0
 17:48:58.511,-1.7095,-1.12695,-0.146279,0,0,0
 17:48:58.512,-1.70962,-1.12715,-0.146383,0,0,0
 17:48:58.512,-1.70972,-1.12786,-0.146484,0,0,0
 17:48:58.513,-1.70991,-1.12854,-0.146688,0,0,0
 17:48:58.513,-1.71068,-1.12923,-0.1468,0,0,0
 17:48:58.514,-1.71082,-1.12938,-0.146798,0,0,0
 17:48:58.514,-1.71092,-1.13008,-0.146793,0,0,0
 17:48:58.515,-1.71039,-1.13074,-0.146843,0,0,0
 17:48:58.516,-1.70989,-1.13085,-0.146935,0,0,0
 17:48:58.516,-1.71001,-1.13102,-0.14704,0,0,0
 17:48:58.516,-1.70953,-1.13119,-0.147146,0,0,0
 17:48:58.517,-1.70967,-1.13074,-0.147281,0,0,0
 17:48:58.517,-1.70984,-1.13022,-0.147428,0,0,0
 17:48:58.518,-1.70945,-1.13027,-0.147491,0,0,0
 17:48:58.518,-1.70962,-1.13035,-0.147515,0,0,0
 17:48:58.519,-1.70975,-1.1299,-0.147558,0,0,0
 17:48:58.519,-1.70929,-1.1295,-0.147666,0,0,0
 17:48:58.520,-1.70937,-1.12849,-0.147793,0,0,0
 17:48:58.520,-1.70948,-1.12803,-0.147835,0,0,0
 17:48:58.521,-1.70963,-1.12759,-0.147955,0,0,0
 17:48:58.521,-1.70979,-1.12718,-0.148102,0,0,0
 17:48:58.522,-1.70999,-1.12679,-0.148208,0,0,0
 17:48:58.522,-1.7096,-1.12586,-0.148318,0,0,0
 17:48:58.523,-1.70918,-1.12494,-0.148481,0,0,0
 17:48:58.523,-1.70874,-1.12516,-0.148518,0,0,0
 17:48:58.524,-1.7088,-1.12536,-0.148504,0,0,0
 17:48:58.524,-1.70829,-1.12557,-0.148596,0,0,0
 17:48:58.525,-1.7084,-1.12524,-0.148704,0,0,0
 17:48:58.525,-1.7091,-1.12543,-0.148755,0,0,0
 17:48:58.525,-1.7098,-1.12558,-0.148845,0,0,0
 17:48:58.525,-1.70994,-1.12574,-0.148934,0,0,0
 17:48:58.526,-1.71062,-1.1259,-0.149012,0,0,0
 17:48:58.526,-1.71067,-1.12661,-0.149046,0,0,0
 17:48:58.527,-1.71077,-1.12732,-0.14912,0,0,0
 17:48:58.528,-1.71085,-1.12748,-0.149264,0,0,0
 17:48:58.528,-1.71096,-1.12818,-0.149443,0,0,0
 17:48:58.528,-1.71166,-1.12772,-0.149564,0,0,0
 17:48:58.529,-1.71235,-1.12731,-0.149552,0,0,0
 17:48:58.529,-1.71242,-1.12749,-0.149538,0,0,0
 17:48:58.530,-1.71247,-1.12767,-0.149656,0,0,0
 17:48:58.531,-1.71258,-1.12734,-0.149843,0,0,0
 17:48:58.531,-1.71325,-1.12758,-0.149947,0,0,0
 17:48:58.532,-1.71327,-1.12775,-0.15,0,0,0
 17:48:58.532,-1.71268,-1.12729,-0.150124,0,0,0
 17:48:58.532,-1.7127,-1.12678,-0.15022,0,0,0
 17:48:58.533,-1.7133,-1.12628,-0.150302,0,0,0
 17:48:58.533,-1.71276,-1.12583,-0.15041,0,0,0
 17:48:58.534,-1.71283,-1.12543,-0.150518,0,0,0
 17:48:58.535,-1.71298,-1.12562,-0.150567,0,0,0
 17:48:58.535,-1.71254,-1.12465,-0.150717,0,0,0
 17:48:58.535,-1.712,-1.12476,-0.150834,0,0,0
 17:48:58.536,-1.71146,-1.12438,-0.150917,0,0,0
 17:48:58.536,-1.71152,-1.12403,-0.150959,0,0,0
 17:48:58.537,-1.71097,-1.12368,-0.151055,0,0,0
 17:48:58.538,-1.71042,-1.12329,-0.151216,0,0,0
 17:48:58.538,-1.70992,-1.12287,-0.151337,0,0,0
 17:48:58.538,-1.71006,-1.12254,-0.151456,0,0,0
 17:48:58.539,-1.7102,-1.12339,-0.151514,0,0,0
 17:48:58.539,-1.71036,-1.12365,-0.151656,0,0,0
 17:48:58.540,-1.71048,-1.12392,-0.151798,0,0,0
 17:48:58.541,-1.71059,-1.12472,-0.151871,0,0,0
 17:48:58.541,-1.71066,-1.1249,-0.151909,0,0,0
 17:48:58.541,-1.71129,-1.1245,-0.151978,0,0,0
 17:48:58.542,-1.71137,-1.12468,-0.152068,0,0,0
 17:48:58.542,-1.71203,-1.12493,-0.152198,0,0,0
 17:48:58.543,-1.7121,-1.12518,-0.152262,0,0,0
 17:48:58.544,-1.71279,-1.12593,-0.152269,0,0,0
 17:48:58.544,-1.71292,-1.12662,-0.152314,0,0,0
 17:48:58.545,-1.71361,-1.12732,-0.152361,0,0,0
 17:48:58.545,-1.71373,-1.12808,-0.15242,0,0,0
 17:48:58.545,-1.71384,-1.12831,-0.152563,0,0,0
 17:48:58.546,-1.71335,-1.12854,-0.15268,0,0,0
 17:48:58.547,-1.71344,-1.12873,-0.152718,0,0,0
 17:48:58.547,-1.71353,-1.12891,-0.152875,0,0,0
 17:48:58.548,-1.7136,-1.12914,-0.153019,0,0,0
 17:48:58.548,-1.71372,-1.12941,-0.153097,0,0,0
 17:48:58.548,-1.71383,-1.12907,-0.153231,0,0,0
 17:48:58.549,-1.71335,-1.12867,-0.153379,0,0,0
 17:48:58.549,-1.71283,-1.12824,-0.153435,0,0,0
 17:48:58.550,-1.71231,-1.1284,-0.153514,0,0,0
 17:48:58.551,-1.71235,-1.12862,-0.15358,0,0,0
 17:48:58.551,-1.7124,-1.12825,-0.153583,0,0,0
 17:48:58.551,-1.71307,-1.12785,-0.153691,0,0,0
 17:48:58.552,-1.71321,-1.12747,-0.153837,0,0,0
 17:48:58.552,-1.71332,-1.12712,-0.153905,0,0,0
 17:48:58.553,-1.71278,-1.1267,-0.154041,0,0,0
 17:48:58.554,-1.71231,-1.12685,-0.154105,0,0,0
 17:48:58.554,-1.7124,-1.12649,-0.154146,0,0,0
 17:48:58.555,-1.71249,-1.12613,-0.154175,0,0,0
 17:48:58.555,-1.71196,-1.12574,-0.154297,0,0,0
 17:48:58.555,-1.71144,-1.12532,-0.154471,0,0,0
 17:48:58.556,-1.71105,-1.12549,-0.154573,0,0,0
 17:48:58.557,-1.71123,-1.12453,-0.154695,0,0,0
 17:48:58.557,-1.71314,-1.12364,-0.154818,0,0,0
 17:48:58.557,-1.71264,-1.12385,-0.154881,0,0,0
 17:48:58.558,-1.71209,-1.12458,-0.154968,0,0,0
 17:48:58.558,-1.71144,-1.1247,-0.155075,0,0,0
 17:48:58.559,-1.71082,-1.12485,-0.155169,0,0,0
 17:48:58.560,-1.71141,-1.12449,-0.155251,0,0,0
 17:48:58.560,-1.71272,-1.12415,-0.155278,0,0,0
 17:48:58.561,-1.71478,-1.12441,-0.155203,0,0,0
 17:48:58.561,-1.71628,-1.12468,-0.15522,0,0,0
 17:48:58.561,-1.71653,-1.12491,-0.155318,0,0,0
 17:48:58.562,-1.71665,-1.12453,-0.155451,0,0,0
 17:48:58.563,-1.71552,-1.12412,-0.155519,0,0,0
 17:48:58.563,-1.71372,-1.12311,-0.15558,0,0,0
 17:48:58.564,-1.71306,-1.12156,-0.155685,0,0,0
 17:48:58.564,-1.71428,-1.12008,-0.155812,0,0,0
 17:48:58.564,-1.71621,-1.11985,-0.155902,0,0,0
 17:48:58.565,-1.71818,-1.12031,-0.155894,0,0,0
 17:48:58.565,-1.7201,-1.12137,-0.155936,0,0,0
 17:48:58.566,-1.7202,-1.12297,-0.155963,0,0,0
 17:48:58.567,-1.7196,-1.12443,-0.15598,0,0,0
 17:48:58.567,-1.71773,-1.12517,-0.156096,0,0,0
 17:48:58.567,-1.71583,-1.12522,-0.156271,0,0,0
 17:48:58.568,-1.71513,-1.12531,-0.156365,0,0,0
 17:48:58.568,-1.71507,-1.1255,-0.156457,0,0,0
 17:48:58.569,-1.7151,-1.12512,-0.156592,0,0,0
 17:48:58.570,-1.71693,-1.12472,-0.156685,0,0,0
 17:48:58.570,-1.71826,-1.12494,-0.156693,0,0,0
 17:48:58.571,-1.71841,-1.12517,-0.156727,0,0,0
 17:48:58.571,-1.71791,-1.12484,-0.15686,0,0,0
 17:48:58.571,-1.71732,-1.12393,-0.156959,0,0,0
 17:48:58.572,-1.71608,-1.12296,-0.157047,0,0,0
 17:48:58.573,-1.71484,-1.12196,-0.157201,0,0,0
 17:48:58.573,-1.71487,-1.12215,-0.157317,0,0,0
 17:48:58.574,-1.71607,-1.12183,-0.15745,0,0,0
 17:48:58.574,-1.71735,-1.12216,-0.157644,0,0,0
 17:48:58.574,-1.71924,-1.12253,-0.157744,0,0,0
 17:48:58.575,-1.71996,-1.12346,-0.157747,0,0,0
 17:48:58.576,-1.7206,-1.12382,-0.157717,0,0,0
 17:48:58.576,-1.71999,-1.12417,-0.157742,0,0,0
 17:48:58.577,-1.71932,-1.1244,-0.157875,0,0,0
 17:48:58.577,-1.71862,-1.12515,-0.157951,0,0,0
 17:48:58.577,-1.71852,-1.12646,-0.157904,0,0,0
 17:48:58.578,-1.71905,-1.12668,-0.157944,0,0,0
 17:48:58.579,-1.71964,-1.12692,-0.158074,0,0,0
 17:48:58.579,-1.72027,-1.12775,-0.158134,0,0,0
 17:48:58.580,-1.72091,-1.12858,-0.158167,0,0,0
 17:48:58.580,-1.7209,-1.12878,-0.158219,0,0,0
 17:48:58.581,-1.72084,-1.12777,-0.158267,0,0,0
 17:48:58.581,-1.72018,-1.12683,-0.158302,0,0,0
 17:48:58.581,-1.71955,-1.12588,-0.158349,0,0,0
 17:48:58.582,-1.7189,-1.12546,-0.158406,0,0,0
 17:48:58.583,-1.71886,-1.12457,-0.158612,0,0,0
 17:48:58.583,-1.71884,-1.12485,-0.158756,0,0,0
 17:48:58.584,-1.71888,-1.12452,-0.158823,0,0,0
 17:48:58.584,-1.71949,-1.12419,-0.158864,0,0,0
 17:48:58.585,-1.71953,-1.12391,-0.158998,0,0,0
 17:48:58.585,-1.71898,-1.12361,-0.159224,0,0,0
 17:48:58.586,-1.71835,-1.12325,-0.159465,0,0,0
 17:48:58.586,-1.71717,-1.12344,-0.159542,0,0,0
 17:48:58.587,-1.71661,-1.12363,-0.159606,0,0,0
 17:48:58.587,-1.71669,-1.12389,-0.159761,0,0,0
 17:48:58.587,-1.71678,-1.1247,-0.159899,0,0,0
 17:48:58.588,-1.71689,-1.12492,-0.160053,0,0,0
 17:48:58.589,-1.71698,-1.12453,-0.160226,0,0,0
 17:48:58.589,-1.71707,-1.12528,-0.160271,0,0,0
 17:48:58.590,-1.71716,-1.12546,-0.160294,0,0,0
 17:48:58.590,-1.71719,-1.12508,-0.160442,0,0,0
 17:48:58.590,-1.71715,-1.12528,-0.160573,0,0,0
 17:48:58.591,-1.71717,-1.12489,-0.160681,0,0,0
 17:48:58.592,-1.71722,-1.12446,-0.16084,0,0,0
 17:48:58.592,-1.71732,-1.12467,-0.160995,0,0,0
 17:48:58.593,-1.71742,-1.12498,-0.161097,0,0,0
 17:48:58.593,-1.71864,-1.12525,-0.161173,0,0,0
 17:48:58.594,-1.71927,-1.12492,-0.161254,0,0,0
 17:48:58.594,-1.71986,-1.12516,-0.161291,0,0,0
 17:48:58.595,-1.72046,-1.12537,-0.161288,0,0,0
 17:48:58.595,-1.72047,-1.12555,-0.16122,0,0,0
 17:48:58.596,-1.72047,-1.12572,-0.161284,0,0,0
 17:48:58.596,-1.72044,-1.12594,-0.161375,0,0,0
 17:48:58.597,-1.7204,-1.12558,-0.161444,0,0,0
 17:48:58.597,-1.72037,-1.12577,-0.161495,0,0,0
 17:48:58.597,-1.72042,-1.12598,-0.161585,0,0,0
 17:48:58.598,-1.72052,-1.12623,-0.16166,0,0,0
 17:48:58.599,-1.72059,-1.12636,-0.161669,0,0,0
 17:48:58.599,-1.72063,-1.12647,-0.161679,0,0,0
 17:48:58.600,-1.72058,-1.1272,-0.161754,0,0,0
 17:48:58.600,-1.71999,-1.128,-0.161841,0,0,0
 17:48:58.600,-1.71943,-1.12825,-0.161959,0,0,0
 17:48:58.601,-1.71939,-1.12839,-0.162091,0,0,0
 17:48:58.602,-1.71935,-1.12856,-0.162196,0,0,0
 17:48:58.602,-1.71938,-1.12824,-0.162358,0,0,0
 17:48:58.603,-1.72001,-1.12788,-0.162558,0,0,0
 17:48:58.603,-1.72001,-1.12743,-0.162679,0,0,0
 17:48:58.604,-1.71943,-1.12696,-0.162775,0,0,0
 17:48:58.604,-1.7195,-1.12653,-0.162841,0,0,0
 17:48:58.605,-1.7195,-1.1261,-0.16287,0,0,0
 17:48:58.605,-1.71943,-1.12512,-0.162971,0,0,0
 17:48:58.606,-1.71888,-1.1248,-0.163117,0,0,0
 17:48:58.606,-1.71893,-1.12452,-0.163238,0,0,0
 17:48:58.607,-1.71839,-1.12427,-0.163279,0,0,0
 17:48:58.607,-1.71898,-1.12396,-0.163307,0,0,0
 17:48:58.608,-1.71899,-1.1242,-0.163398,0,0,0
 17:48:58.608,-1.71962,-1.12452,-0.16354,0,0,0
 17:48:58.609,-1.71964,-1.12542,-0.163652,0,0,0
 17:48:58.609,-1.71906,-1.12623,-0.163713,0,0,0
 17:48:58.610,-1.71905,-1.12695,-0.163773,0,0,0
 17:48:58.610,-1.71902,-1.12654,-0.163816,0,0,0
 17:48:58.611,-1.71903,-1.12614,-0.163831,0,0,0
 17:48:58.611,-1.71849,-1.12625,-0.163895,0,0,0
 17:48:58.612,-1.7191,-1.12759,-0.163937,0,0,0
 17:48:58.612,-1.71916,-1.12786,-0.164067,0,0,0
 17:48:58.613,-1.7192,-1.12868,-0.164128,0,0,0
 17:48:58.613,-1.71917,-1.12949,-0.164111,0,0,0
 17:48:58.613,-1.7185,-1.12964,-0.164178,0,0,0
 17:48:58.614,-1.7179,-1.1298,-0.164324,0,0,0
 17:48:58.615,-1.7173,-1.12934,-0.164447,0,0,0
 17:48:58.615,-1.71677,-1.12886,-0.164555,0,0,0
 17:48:58.616,-1.71682,-1.12903,-0.164646,0,0,0
 17:48:58.616,-1.71741,-1.12928,-0.164791,0,0,0
 17:48:58.617,-1.71749,-1.12897,-0.164899,0,0,0
 17:48:58.617,-1.71813,-1.12921,-0.164884,0,0,0
 17:48:58.618,-1.71879,-1.12935,-0.164948,0,0,0
 17:48:58.618,-1.71827,-1.12948,-0.165091,0,0,0
 17:48:58.619,-1.7177,-1.12905,-0.165173,0,0,0
 17:48:58.619,-1.71713,-1.12916,-0.165173,0,0,0
 17:48:58.620,-1.7166,-1.12927,-0.165105,0,0,0
 17:48:58.620,-1.71666,-1.12886,-0.165121,0,0,0
 17:48:58.621,-1.71732,-1.12846,-0.165215,0,0,0
 17:48:58.621,-1.7174,-1.12918,-0.165274,0,0,0
 17:48:58.622,-1.71749,-1.12929,-0.165338,0,0,0
 17:48:58.622,-1.71758,-1.12942,-0.165388,0,0,0
 17:48:58.623,-1.71763,-1.1296,-0.165519,0,0,0
 17:48:58.623,-1.71765,-1.12978,-0.165598,0,0,0
 17:48:58.624,-1.71709,-1.13049,-0.165633,0,0,0
 17:48:58.624,-1.71657,-1.13067,-0.165751,0,0,0
 17:48:58.625,-1.71602,-1.13081,-0.165883,0,0,0
 17:48:58.625,-1.71614,-1.13093,-0.166013,0,0,0
 17:48:58.626,-1.71627,-1.13105,-0.166143,0,0,0
 17:48:58.626,-1.71638,-1.13178,-0.166229,0,0,0
 17:48:58.627,-1.71651,-1.13193,-0.166346,0,0,0
 17:48:58.627,-1.71663,-1.13209,-0.16641,0,0,0
 17:48:58.628,-1.71668,-1.13163,-0.166439,0,0,0
 17:48:58.628,-1.71673,-1.13111,-0.166456,0,0,0
 17:48:58.629,-1.71619,-1.13117,-0.166495,0,0,0
 17:48:58.629,-1.71562,-1.13125,-0.166614,0,0,0
 17:48:58.629,-1.71564,-1.13139,-0.16672,0,0,0
 17:48:58.630,-1.71627,-1.13155,-0.166799,0,0,0
 17:48:58.631,-1.71574,-1.13167,-0.166878,0,0,0
 17:48:58.631,-1.71576,-1.13124,-0.166989,0,0,0
 17:48:58.632,-1.71575,-1.13082,-0.167112,0,0,0
 17:48:58.632,-1.71576,-1.13094,-0.167232,0,0,0
 17:48:58.633,-1.71579,-1.13047,-0.167275,0,0,0
 17:48:58.633,-1.71522,-1.12947,-0.167376,0,0,0
 17:48:58.634,-1.71526,-1.12906,-0.167432,0,0,0
 17:48:58.634,-1.71535,-1.12867,-0.167408,0,0,0
 17:48:58.635,-1.71546,-1.1294,-0.167454,0,0,0
 17:48:58.635,-1.7155,-1.12954,-0.167546,0,0,0
 17:48:58.636,-1.71494,-1.12971,-0.167612,0,0,0
 17:48:58.638,-1.71441,-1.12986,-0.16781,0,0,0
 17:48:58.638,-1.71388,-1.13,-0.168021,0,0,0
 17:48:58.638,-1.7145,-1.1296,-0.16821,0,0,0
 17:48:58.638,-1.71452,-1.12921,-0.168333,0,0,0
 17:48:58.638,-1.71515,-1.12823,-0.168393,0,0,0
 17:48:58.639,-1.71577,-1.12837,-0.168458,0,0,0
 17:48:58.639,-1.71585,-1.1285,-0.168654,0,0,0
 17:48:58.640,-1.71594,-1.12806,-0.16884,0,0,0
 17:48:58.640,-1.71599,-1.12767,-0.168922,0,0,0
 17:48:58.641,-1.71603,-1.12727,-0.169005,0,0,0
 17:48:58.641,-1.71549,-1.12689,-0.169166,0,0,0
 17:48:58.642,-1.71498,-1.127,-0.16923,0,0,0
 17:48:58.642,-1.7139,-1.12711,-0.169294,0,0,0
 17:48:58.643,-1.71398,-1.12726,-0.169305,0,0,0
 17:48:58.643,-1.7141,-1.12695,-0.169385,0,0,0
 17:48:58.644,-1.71422,-1.12664,-0.169465,0,0,0
 17:48:58.644,-1.71434,-1.12633,-0.169546,0,0,0
 17:48:58.645,-1.71449,-1.12651,-0.169581,0,0,0
 17:48:58.645,-1.71464,-1.12676,-0.169591,0,0,0
 17:48:58.646,-1.71478,-1.127,-0.1696,0,0,0
 17:48:58.646,-1.71551,-1.12723,-0.169609,0,0,0
 17:48:58.647,-1.71557,-1.12739,-0.169753,0,0,0
 17:48:58.647,-1.7156,-1.12759,-0.169911,0,0,0
 17:48:58.648,-1.71564,-1.12778,-0.170069,0,0,0
 17:48:58.648,-1.71567,-1.12797,-0.170226,0,0,0
 17:48:58.649,-1.71571,-1.12816,-0.170384,0,0,0
 17:48:58.649,-1.71574,-1.12835,-0.170542,0,0,0
 17:48:58.650,-1.71577,-1.12854,-0.1707,0,0,0
 17:48:58.650,-1.71584,-1.1276,-0.170786,0,0,0
 17:48:58.651,-1.7159,-1.12667,-0.170871,0,0,0
 17:48:58.651,-1.71596,-1.12575,-0.170957,0,0,0
 17:48:58.652,-1.71602,-1.12484,-0.171041,0,0,0
 17:48:58.652,-1.716,-1.12503,-0.171067,0,0,0
 17:48:58.653,-1.71598,-1.12521,-0.171093,0,0,0
 17:48:58.653,-1.71596,-1.12539,-0.171119,0,0,0
 17:48:58.654,-1.71594,-1.12557,-0.171145,0,0,0
 17:48:58.654,-1.71592,-1.12575,-0.171171,0,0,0
 17:48:58.655,-1.7159,-1.12593,-0.171197,0,0,0
 17:48:58.655,-1.71588,-1.1261,-0.171224,0,0,0
 17:48:58.656,-1.71586,-1.12628,-0.17125,0,0,0
 17:48:58.656,-1.71583,-1.12645,-0.171276,0,0,0
 17:48:58.657,-1.71581,-1.12662,-0.171303,0,0,0
 17:48:58.657,-1.7158,-1.12678,-0.171329,0,0,0
 17:48:58.658,-1.71578,-1.12695,-0.171355,0,0,0
 17:48:58.658,-1.71576,-1.12712,-0.171382,0,0,0
 17:48:58.659,-1.71574,-1.12728,-0.171409,0,0,0
 17:48:58.659,-1.71572,-1.12744,-0.171435,0,0,0
 17:48:58.660,-1.7157,-1.1276,-0.171462,0,0,0
 17:48:58.660,-1.71568,-1.12776,-0.171488,0,0,0
 17:48:58.661,-1.71566,-1.12791,-0.171515,0,0,0
 17:48:58.661,-1.71564,-1.12807,-0.171542,0,0,0
 17:48:58.661,-1.71563,-1.12822,-0.171569,0,0,0
 17:48:58.662,-1.71561,-1.12837,-0.171596,0,0,0
 17:48:58.663,-1.71559,-1.12852,-0.171623,0,0,0
 17:48:58.663,-1.71557,-1.12867,-0.17165,0,0,0
 17:48:58.664,-1.71555,-1.12882,-0.171677,0,0,0
 17:48:58.664,-1.71554,-1.12896,-0.171704,0,0,0
 17:48:58.665,-1.71552,-1.12911,-0.171731,0,0,0
 17:48:58.665,-1.7155,-1.12925,-0.171758,0,0,0
 17:48:58.666,-1.71549,-1.12939,-0.171785,0,0,0
 17:48:58.666,-1.71547,-1.12953,-0.171812,0,0,0
 17:48:58.667,-1.71545,-1.12967,-0.17184,0,0,0
 17:48:58.667,-1.71544,-1.12981,-0.171867,0,0,0
 17:48:58.668,-1.71542,-1.12994,-0.171894,0,0,0
 17:48:58.669,-1.71541,-1.13008,-0.171922,0,0,0
 17:48:58.669,-1.71539,-1.13021,-0.171949,0,0,0
 17:48:58.669,-1.71537,-1.13034,-0.171977,0,0,0
 17:48:58.670,-1.71536,-1.13047,-0.172004,0,0,0
 17:48:58.670,-1.71534,-1.1306,-0.172032,0,0,0
 17:48:58.671,-1.71533,-1.13073,-0.172059,0,0,0
 17:48:58.671,-1.71589,-1.13086,-0.172087,0,0,0
 17:48:58.672,-1.71598,-1.13047,-0.172195,0,0,0
 17:48:58.672,-1.71658,-1.13012,-0.172291,0,0,0
 17:48:58.673,-1.71658,-1.13031,-0.172385,0,0,0
 17:48:58.673,-1.71597,-1.13039,-0.172452,0,0,0
 17:48:58.674,-1.71597,-1.13045,-0.172412,0,0,0
 17:48:58.674,-1.71653,-1.13051,-0.172413,0,0,0
 17:48:58.675,-1.71717,-1.13064,-0.172451,0,0,0
 17:48:58.676,-1.71784,-1.13082,-0.172528,0,0,0
 17:48:58.676,-1.71791,-1.1304,-0.172649,0,0,0
 17:48:58.676,-1.7185,-1.13001,-0.172719,0,0,0
 17:48:58.677,-1.71846,-1.13024,-0.172773,0,0,0
 17:48:58.677,-1.71783,-1.12985,-0.172832,0,0,0
 17:48:58.678,-1.71719,-1.13001,-0.172899,0,0,0
 17:48:58.678,-1.7172,-1.13022,-0.173018,0,0,0
 17:48:58.679,-1.71729,-1.1304,-0.173188,0,0,0
 17:48:58.679,-1.71742,-1.13053,-0.173291,0,0,0
 17:48:58.680,-1.7175,-1.13067,-0.173341,0,0,0
 17:48:58.680,-1.71751,-1.13091,-0.173355,0,0,0
 17:48:58.681,-1.71752,-1.13172,-0.173418,0,0,0
 17:48:58.682,-1.71814,-1.13245,-0.173558,0,0,0
 17:48:58.682,-1.71757,-1.13253,-0.173678,0,0,0
 17:48:58.682,-1.71694,-1.13202,-0.173776,0,0,0
 17:48:58.683,-1.71696,-1.13095,-0.173903,0,0,0
 17:48:58.683,-1.71701,-1.12991,-0.174015,0,0,0
 17:48:58.684,-1.71707,-1.12892,-0.174114,0,0,0
 17:48:58.684,-1.71772,-1.12852,-0.174208,0,0,0
 17:48:58.685,-1.7184,-1.12815,-0.174289,0,0,0
 17:48:58.685,-1.71907,-1.12891,-0.174414,0,0,0
 17:48:58.686,-1.71916,-1.12854,-0.174626,0,0,0
 17:48:58.686,-1.71976,-1.12876,-0.174783,0,0,0
 17:48:58.687,-1.7198,-1.12895,-0.1749,0,0,0
 17:48:58.687,-1.71989,-1.12911,-0.174977,0,0,0
 17:48:58.688,-1.71994,-1.12923,-0.175027,0,0,0
 17:48:58.688,-1.71996,-1.12883,-0.17503,0,0,0
 17:48:58.689,-1.71999,-1.12845,-0.175059,0,0,0
 17:48:58.689,-1.72005,-1.12863,-0.175122,0,0,0
 17:48:58.690,-1.72006,-1.12874,-0.17524,0,0,0
 17:48:58.690,-1.71951,-1.12942,-0.17534,0,0,0
 17:48:58.691,-1.71893,-1.12955,-0.175392,0,0,0
 17:48:58.691,-1.71831,-1.12968,-0.175472,0,0,0
 17:48:58.692,-1.71887,-1.12986,-0.175618,0,0,0
 17:48:58.692,-1.7189,-1.13008,-0.175696,0,0,0
 17:48:58.693,-1.71892,-1.12967,-0.175739,0,0,0
 17:48:58.693,-1.71902,-1.12922,-0.175819,0,0,0
 17:48:58.694,-1.71858,-1.12875,-0.175964,0,0,0
 17:48:58.694,-1.71866,-1.12832,-0.176071,0,0,0
 17:48:58.695,-1.71867,-1.12791,-0.176114,0,0,0
 17:48:58.695,-1.7187,-1.1281,-0.176138,0,0,0
 17:48:58.696,-1.71877,-1.12778,-0.176233,0,0,0
 17:48:58.696,-1.71883,-1.12748,-0.176274,0,0,0
 17:48:58.697,-1.71832,-1.12654,-0.176386,0,0,0
 17:48:58.698,-1.71836,-1.12613,-0.176559,0,0,0
 17:48:58.698,-1.71835,-1.12574,-0.17672,0,0,0
 17:48:58.698,-1.71838,-1.12594,-0.176811,0,0,0
 17:48:58.699,-1.71787,-1.12614,-0.176834,0,0,0
 17:48:58.699,-1.71794,-1.12633,-0.176871,0,0,0
 17:48:58.700,-1.718,-1.12657,-0.176974,0,0,0
 17:48:58.701,-1.71808,-1.12686,-0.17713,0,0,0
 17:48:58.701,-1.71751,-1.12659,-0.177279,0,0,0
 17:48:58.702,-1.71691,-1.12629,-0.177362,0,0,0
 17:48:58.702,-1.71641,-1.12653,-0.177413,0,0,0
 17:48:58.702,-1.7165,-1.12679,-0.177516,0,0,0
 17:48:58.703,-1.71657,-1.12647,-0.17761,0,0,0
 17:48:58.703,-1.71663,-1.1267,-0.177634,0,0,0
 17:48:58.704,-1.71731,-1.12639,-0.177794,0,0,0
 17:48:58.704,-1.71743,-1.12663,-0.177975,0,0,0
 17:48:58.705,-1.71809,-1.12682,-0.178117,0,0,0
 17:48:58.705,-1.71813,-1.12701,-0.178274,0,0,0
 17:48:58.706,-1.7187,-1.12724,-0.178405,0,0,0
 17:48:58.706,-1.71867,-1.12805,-0.178454,0,0,0
 17:48:58.707,-1.71865,-1.12826,-0.17848,0,0,0
 17:48:58.708,-1.71925,-1.12843,-0.178478,0,0,0
 17:48:58.708,-1.71928,-1.12857,-0.178595,0,0,0
 17:48:58.708,-1.7187,-1.12877,-0.17866,0,0,0
 17:48:58.709,-1.71813,-1.12844,-0.17869,0,0,0
 17:48:58.709,-1.71809,-1.12863,-0.178809,0,0,0
 17:48:58.710,-1.71802,-1.12875,-0.178955,0,0,0
 17:48:58.711,-1.71804,-1.12829,-0.17905,0,0,0
 17:48:58.711,-1.71812,-1.12838,-0.179166,0,0,0
 17:48:58.711,-1.7176,-1.12853,-0.17927,0,0,0
 17:48:58.712,-1.71765,-1.12878,-0.179374,0,0,0
 17:48:58.712,-1.7177,-1.12902,-0.179478,0,0,0
 17:48:58.713,-1.71709,-1.12861,-0.179575,0,0,0
 17:48:58.714,-1.71708,-1.12878,-0.179628,0,0,0
 17:48:58.714,-1.7165,-1.12841,-0.179697,0,0,0
 17:48:58.714,-1.71592,-1.12808,-0.179662,0,0,0
 17:48:58.715,-1.71534,-1.1283,-0.179701,0,0,0
 17:48:58.715,-1.71594,-1.12845,-0.179846,0,0,0
 17:48:58.716,-1.71661,-1.12858,-0.179936,0,0,0
 17:48:58.717,-1.71725,-1.12876,-0.179947,0,0,0
 17:48:58.717,-1.71728,-1.12838,-0.180003,0,0,0
 17:48:58.718,-1.71735,-1.12799,-0.180137,0,0,0
 17:48:58.718,-1.71743,-1.12817,-0.180254,0,0,0
 17:48:58.718,-1.71743,-1.12835,-0.180372,0,0,0
 17:48:58.719,-1.7174,-1.1274,-0.180499,0,0,0
 17:48:58.719,-1.71685,-1.12757,-0.180603,0,0,0
 17:48:58.720,-1.71637,-1.12828,-0.180662,0,0,0
 17:48:58.720,-1.71647,-1.12842,-0.180712,0,0,0
 17:48:58.721,-1.71707,-1.1286,-0.180778,0,0,0
 17:48:58.721,-1.71658,-1.12886,-0.180828,0,0,0
 17:48:58.722,-1.71668,-1.12853,-0.180936,0,0,0
 17:48:58.722,-1.71675,-1.12761,-0.181048,0,0,0
 17:48:58.723,-1.71681,-1.12784,-0.181046,0,0,0
 17:48:58.724,-1.71624,-1.12807,-0.181072,0,0,0
 17:48:58.724,-1.7157,-1.12774,-0.18122,0,0,0
 17:48:58.724,-1.71578,-1.12682,-0.181411,0,0,0
 17:48:58.725,-1.71586,-1.12645,-0.181558,0,0,0
 17:48:58.725,-1.71593,-1.12612,-0.181639,0,0,0
 17:48:58.726,-1.71548,-1.12642,-0.181755,0,0,0
 17:48:58.727,-1.71502,-1.12613,-0.181861,0,0,0
 17:48:58.727,-1.71509,-1.12638,-0.181899,0,0,0
 17:48:58.727,-1.71512,-1.12657,-0.181964,0,0,0
 17:48:58.728,-1.71518,-1.12616,-0.182151,0,0,0
 17:48:58.728,-1.71526,-1.12524,-0.182302,0,0,0
 17:48:58.729,-1.71598,-1.12437,-0.182358,0,0,0
 17:48:58.730,-1.71609,-1.12405,-0.182437,0,0,0
 17:48:58.730,-1.71558,-1.12375,-0.182571,0,0,0
 17:48:58.730,-1.71571,-1.12409,-0.182659,0,0,0
 17:48:58.731,-1.71528,-1.1244,-0.182733,0,0,0
 17:48:58.731,-1.71481,-1.12466,-0.182783,0,0,0
 17:48:58.732,-1.71433,-1.1243,-0.182916,0,0,0
 17:48:58.733,-1.71443,-1.12396,-0.183075,0,0,0
 17:48:58.733,-1.71392,-1.12367,-0.183169,0,0,0
 17:48:58.734,-1.71281,-1.12392,-0.183207,0,0,0
 17:48:58.734,-1.71286,-1.12412,-0.183298,0,0,0
 17:48:58.734,-1.71297,-1.12489,-0.183343,0,0,0
 17:48:58.735,-1.71249,-1.12509,-0.183367,0,0,0
 17:48:58.735,-1.71261,-1.12537,-0.183457,0,0,0
 17:48:58.736,-1.71267,-1.12565,-0.183521,0,0,0
 17:48:58.737,-1.71215,-1.12584,-0.183546,0,0,0
 17:48:58.737,-1.71159,-1.12599,-0.183612,0,0,0
 17:48:58.737,-1.71103,-1.12616,-0.183664,0,0,0
 17:48:58.738,-1.71052,-1.12583,-0.183693,0,0,0
 17:48:58.738,-1.71006,-1.12611,-0.183771,0,0,0
 17:48:58.739,-1.71018,-1.12634,-0.183861,0,0,0
 17:48:58.740,-1.71025,-1.1265,-0.183979,0,0,0
 17:48:58.740,-1.7103,-1.12728,-0.184041,0,0,0
 17:48:58.741,-1.70977,-1.1275,-0.184028,0,0,0
 17:48:58.741,-1.70983,-1.12769,-0.18412,0,0,0
 17:48:58.741,-1.71049,-1.12724,-0.184268,0,0,0
 17:48:58.742,-1.71,-1.12681,-0.184389,0,0,0
 17:48:58.743,-1.71006,-1.12636,-0.184471,0,0,0
 17:48:58.743,-1.71011,-1.12593,-0.184594,0,0,0
 17:48:58.744,-1.7102,-1.12559,-0.184741,0,0,0
 17:48:58.744,-1.7097,-1.12583,-0.184833,0,0,0
 17:48:58.744,-1.70974,-1.12542,-0.184889,0,0,0
 17:48:58.745,-1.70984,-1.12557,-0.184993,0,0,0
 17:48:58.746,-1.70996,-1.12522,-0.185113,0,0,0
 17:48:58.746,-1.71064,-1.12427,-0.185224,0,0,0
 17:48:58.747,-1.71134,-1.12447,-0.185287,0,0,0
 17:48:58.747,-1.71199,-1.12467,-0.185324,0,0,0
 17:48:58.747,-1.71261,-1.12487,-0.185376,0,0,0
 17:48:58.748,-1.71265,-1.12513,-0.18548,0,0,0
 17:48:58.749,-1.7127,-1.12598,-0.185554,0,0,0
 17:48:58.749,-1.71275,-1.12731,-0.185532,0,0,0
 17:48:58.750,-1.71281,-1.12803,-0.185527,0,0,0
 17:48:58.750,-1.71226,-1.12872,-0.185576,0,0,0
 17:48:58.750,-1.71229,-1.1288,-0.185668,0,0,0
 17:48:58.751,-1.71237,-1.12885,-0.185773,0,0,0
 17:48:58.751,-1.71244,-1.12889,-0.18585,0,0,0
 17:48:58.752,-1.71248,-1.12898,-0.185903,0,0,0
 17:48:58.753,-1.71259,-1.12914,-0.185967,0,0,0
 17:48:58.753,-1.71271,-1.12933,-0.186071,0,0,0
 17:48:58.754,-1.71275,-1.1295,-0.186045,0,0,0
 17:48:58.754,-1.71332,-1.12905,-0.186063,0,0,0
 17:48:58.754,-1.71277,-1.12861,-0.186199,0,0,0
 17:48:58.755,-1.71221,-1.12817,-0.186335,0,0,0
 17:48:58.756,-1.71171,-1.12771,-0.186443,0,0,0
 17:48:58.756,-1.71179,-1.12723,-0.186498,0,0,0
 17:48:58.756,-1.71186,-1.12681,-0.186541,0,0,0
 17:48:58.757,-1.71246,-1.12643,-0.186637,0,0,0
 17:48:58.757,-1.71253,-1.12607,-0.186825,0,0,0
 17:48:58.758,-1.71266,-1.1257,-0.186971,0,0,0
 17:48:58.759,-1.71221,-1.12592,-0.187034,0,0,0
 17:48:58.759,-1.71174,-1.12616,-0.187071,0,0,0
 17:48:58.760,-1.71187,-1.12578,-0.187218,0,0,0
 17:48:58.760,-1.71196,-1.12536,-0.187378,0,0,0
 17:48:58.760,-1.71202,-1.12555,-0.187429,0,0,0
 17:48:58.761,-1.71147,-1.12516,-0.187512,0,0,0
 17:48:58.762,-1.71157,-1.12538,-0.187576,0,0,0
 17:48:58.762,-1.71106,-1.12561,-0.187641,0,0,0
 17:48:58.763,-1.71117,-1.12582,-0.187718,0,0,0
 17:48:58.763,-1.71132,-1.1266,-0.187776,0,0,0
 17:48:58.763,-1.71148,-1.12681,-0.187813,0,0,0
 17:48:58.764,-1.7116,-1.127,-0.18789,0,0,0
 17:48:58.765,-1.71106,-1.12712,-0.187969,0,0,0
 17:48:58.765,-1.71054,-1.12722,-0.188034,0,0,0
 17:48:58.766,-1.71119,-1.12681,-0.188076,0,0,0
 17:48:58.766,-1.71188,-1.12701,-0.1881,0,0,0
 17:48:58.766,-1.71256,-1.12716,-0.188204,0,0,0
 17:48:58.767,-1.71322,-1.12728,-0.188334,0,0,0
 17:48:58.767,-1.71332,-1.1269,-0.188441,0,0,0
 17:48:58.768,-1.71341,-1.12656,-0.188562,0,0,0
 17:48:58.769,-1.71346,-1.12679,-0.18868,0,0,0
 17:48:58.769,-1.71291,-1.12696,-0.188799,0,0,0
 17:48:58.769,-1.71243,-1.12654,-0.18888,0,0,0
 17:48:58.770,-1.71194,-1.12675,-0.188917,0,0,0
 17:48:58.770,-1.71204,-1.12698,-0.188995,0,0,0
 17:48:58.771,-1.71209,-1.12726,-0.1891,0,0,0
 17:48:58.772,-1.71211,-1.12749,-0.189193,0,0,0
 17:48:58.772,-1.71215,-1.12765,-0.189286,0,0,0
 17:48:58.773,-1.71164,-1.12783,-0.189417,0,0,0
 17:48:58.773,-1.71171,-1.12802,-0.189548,0,0,0
 17:48:58.773,-1.71115,-1.12756,-0.189592,0,0,0
 17:48:58.774,-1.71058,-1.12709,-0.189649,0,0,0
 17:48:58.775,-1.71058,-1.12664,-0.189746,0,0,0
 17:48:58.775,-1.71005,-1.12681,-0.189825,0,0,0
 17:48:58.776,-1.71074,-1.12704,-0.189929,0,0,0
 17:48:58.776,-1.71148,-1.12674,-0.190062,0,0,0
 17:48:58.776,-1.71217,-1.127,-0.190113,0,0,0
 17:48:58.777,-1.71223,-1.12721,-0.190139,0,0,0
 17:48:58.778,-1.71228,-1.12741,-0.190177,0,0,0
 17:48:58.778,-1.71236,-1.12702,-0.190299,0,0,0
 17:48:58.779,-1.71246,-1.12601,-0.190371,0,0,0
 17:48:58.779,-1.71258,-1.12556,-0.190384,0,0,0
 17:48:58.780,-1.71264,-1.12571,-0.190422,0,0,0
 17:48:58.780,-1.71271,-1.12594,-0.190473,0,0,0
 17:48:58.781,-1.71276,-1.12619,-0.190525,0,0,0
 17:48:58.781,-1.71285,-1.12699,-0.190665,0,0,0
 17:48:58.782,-1.71352,-1.12717,-0.190888,0,0,0
 17:48:58.782,-1.71298,-1.12787,-0.191002,0,0,0
 17:48:58.783,-1.71242,-1.12801,-0.191108,0,0,0
 17:48:58.783,-1.71245,-1.12762,-0.191244,0,0,0
 17:48:58.783,-1.71189,-1.12776,-0.191284,0,0,0
 17:48:58.784,-1.71195,-1.12786,-0.191322,0,0,0
 17:48:58.785,-1.71199,-1.12803,-0.191388,0,0,0
 17:48:58.785,-1.71207,-1.12881,-0.191435,0,0,0
 17:48:58.786,-1.7122,-1.12959,-0.191548,0,0,0
 17:48:58.786,-1.71228,-1.13029,-0.191649,0,0,0
