Ê±¼ä,pitch,roll,yaw,gyroX_bias,gyroY_bias,gyroZ_bias
 17:48:57.538,-1.83444,-1.14699,0.0183625,0,0,0
 17:48:57.539,-1.83281,-1.14699,0.0182674,0,0,0
 17:48:57.542,-1.83227,-1.1477,0.0181623,0,0,0
 17:48:57.543,-1.83172,-1.14709,0.0180204,0,0,0
 17:48:57.543,-1.83057,-1.14652,0.017904,0,0,0
 17:48:57.543,-1.82944,-1.14596,0.017841,0,0,0
 17:48:57.545,-1.82835,-1.14591,0.0178636,0,0,0
 17:48:57.546,-1.82778,-1.14577,0.0177925,0,0,0
 17:48:57.546,-1.82673,-1.14529,0.0176382,0,0,0
 17:48:57.547,-1.82563,-1.14534,0.0175538,0,0,0
 17:48:57.547,-1.82453,-1.14535,0.0175357,0,0,0
 17:48:57.548,-1.8229,-1.14535,0.0174127,0,0,0
 17:48:57.548,-1.82186,-1.14536,0.01725,0,0,0
 17:48:57.549,-1.82082,-1.14476,0.017148,0,0,0
 17:48:57.549,-1.82034,-1.14365,0.01708,0,0,0
 17:48:57.550,-1.81935,-1.14316,0.0169922,0,0,0
 17:48:57.550,-1.81843,-1.14325,0.0168981,0,0,0
 17:48:57.551,-1.81746,-1.14391,0.0167415,0,0,0
 17:48:57.551,-1.8159,-1.14454,0.0165309,0,0,0
 17:48:57.552,-1.81439,-1.14571,0.016392,0,0,0
 17:48:57.552,-1.81345,-1.14626,0.0163402,0,0,0
 17:48:57.553,-1.81246,-1.14735,0.0162785,0,0,0
 17:48:57.553,-1.8121,-1.14841,0.0161115,0,0,0
 17:48:57.554,-1.81179,-1.14835,0.0159355,0,0,0
 17:48:57.554,-1.81146,-1.14713,0.0157628,0,0,0
 17:48:57.555,-1.81059,-1.14591,0.0155911,0,0,0
 17:48:57.555,-1.81026,-1.14472,0.0154718,0,0,0
 17:48:57.556,-1.80988,-1.14415,0.0153963,0,0,0
 17:48:57.556,-1.80893,-1.14415,0.0152988,0,0,0
 17:48:57.557,-1.80802,-1.14413,0.0151758,0,0,0
 17:48:57.557,-1.80655,-1.1447,0.0150181,0,0,0
 17:48:57.558,-1.80512,-1.14589,0.0148522,0,0,0
 17:48:57.558,-1.80432,-1.1465,0.0146688,0,0,0
 17:48:57.559,-1.8041,-1.14649,0.0145731,0,0,0
 17:48:57.559,-1.80386,-1.14644,0.0145695,0,0,0
 17:48:57.560,-1.80302,-1.14581,0.0145344,0,0,0
 17:48:57.560,-1.80224,-1.14582,0.0143729,0,0,0
 17:48:57.561,-1.80148,-1.14527,0.0142595,0,0,0
 17:48:57.561,-1.8007,-1.14529,0.0142301,0,0,0
 17:48:57.562,-1.7999,-1.1453,0.0141864,0,0,0
 17:48:57.562,-1.79906,-1.14584,0.0140938,0,0,0
 17:48:57.563,-1.79828,-1.14636,0.0140025,0,0,0
 17:48:57.563,-1.79755,-1.14694,0.013846,0,0,0
 17:48:57.564,-1.79681,-1.14759,0.0136883,0,0,0
 17:48:57.564,-1.79598,-1.14825,0.0135939,0,0,0
 17:48:57.565,-1.79518,-1.14829,0.0135083,0,0,0
 17:48:57.565,-1.79443,-1.14764,0.0133536,0,0,0
 17:48:57.566,-1.79372,-1.14697,0.0132924,0,0,0
 17:48:57.566,-1.79298,-1.14578,0.0132523,0,0,0
 17:48:57.567,-1.79161,-1.1446,0.0131181,0,0,0
 17:48:57.567,-1.7908,-1.14346,0.0128647,0,0,0
 17:48:57.568,-1.79005,-1.14233,0.0126659,0,0,0
 17:48:57.568,-1.78995,-1.14173,0.0126857,0,0,0
 17:48:57.569,-1.7899,-1.14181,0.0127377,0,0,0
 17:48:57.569,-1.78929,-1.14193,0.0125911,0,0,0
 17:48:57.570,-1.78921,-1.14201,0.0123905,0,0,0
 17:48:57.570,-1.78848,-1.14142,0.0122502,0,0,0
 17:48:57.571,-1.78837,-1.14087,0.0122299,0,0,0
 17:48:57.571,-1.78767,-1.14041,0.0121691,0,0,0
 17:48:57.572,-1.78693,-1.13997,0.0120411,0,0,0
 17:48:57.572,-1.78685,-1.13947,0.0118888,0,0,0
 17:48:57.573,-1.78684,-1.13955,0.0118626,0,0,0
 17:48:57.573,-1.78687,-1.13964,0.0118502,0,0,0
 17:48:57.574,-1.78622,-1.14026,0.011721,0,0,0
 17:48:57.575,-1.78559,-1.14093,0.0116183,0,0,0
 17:48:57.575,-1.78438,-1.1422,0.0116386,0,0,0
 17:48:57.575,-1.78315,-1.14344,0.0116577,0,0,0
 17:48:57.576,-1.78253,-1.1434,0.0115226,0,0,0
 17:48:57.576,-1.78191,-1.14388,0.0114187,0,0,0
 17:48:57.577,-1.78128,-1.14381,0.0113493,0,0,0
 17:48:57.577,-1.78123,-1.14321,0.0112349,0,0,0
 17:48:57.578,-1.7812,-1.14267,0.0110951,0,0,0
 17:48:57.578,-1.7812,-1.14213,0.010943,0,0,0
 17:48:57.579,-1.78061,-1.14155,0.0108303,0,0,0
 17:48:57.579,-1.77942,-1.14094,0.0107037,0,0,0
 17:48:57.580,-1.77881,-1.1398,0.0105593,0,0,0
 17:48:57.581,-1.77768,-1.13925,0.0104604,0,0,0
 17:48:57.581,-1.77714,-1.13871,0.0103754,0,0,0
 17:48:57.581,-1.77543,-1.13874,0.0103209,0,0,0
 17:48:57.582,-1.77429,-1.13875,0.0102265,0,0,0
 17:48:57.582,-1.77317,-1.13822,0.0100879,0,0,0
 17:48:57.583,-1.77268,-1.1383,0.010034,0,0,0
 17:48:57.583,-1.77216,-1.1378,0.0100148,0,0,0
 17:48:57.584,-1.77167,-1.13785,0.0100007,0,0,0
 17:48:57.584,-1.77118,-1.13728,0.00983648,0,0,0
 17:48:57.585,-1.77067,-1.13676,0.00968483,0,0,0
 17:48:57.585,-1.77009,-1.13686,0.00960223,0,0,0
 17:48:57.586,-1.76955,-1.13697,0.00957324,0,0,0
 17:48:57.586,-1.76907,-1.13756,0.00955065,0,0,0
 17:48:57.587,-1.76865,-1.13811,0.00942341,0,0,0
 17:48:57.587,-1.76761,-1.13867,0.00922831,0,0,0
 17:48:57.588,-1.76712,-1.13875,0.00906715,0,0,0
 17:48:57.588,-1.76659,-1.13886,0.0089972,0,0,0
 17:48:57.589,-1.76666,-1.13834,0.0088969,0,0,0
 17:48:57.589,-1.76622,-1.1384,0.00885576,0,0,0
 17:48:57.590,-1.7664,-1.13789,0.00881127,0,0,0
 17:48:57.590,-1.76596,-1.13738,0.00872616,0,0,0
 17:48:57.591,-1.76549,-1.13743,0.00863162,0,0,0
 17:48:57.591,-1.76556,-1.13743,0.00854977,0,0,0
 17:48:57.592,-1.76508,-1.13802,0.00849918,0,0,0
 17:48:57.592,-1.76461,-1.13747,0.00840009,0,0,0
 17:48:57.593,-1.76472,-1.1375,0.00827932,0,0,0
 17:48:57.594,-1.76423,-1.13813,0.00817515,0,0,0
 17:48:57.594,-1.7638,-1.13879,0.00809844,0,0,0
 17:48:57.594,-1.76343,-1.13883,0.0080586,0,0,0
 17:48:57.595,-1.76307,-1.13942,0.00797039,0,0,0
 17:48:57.595,-1.76329,-1.13946,0.00783794,0,0,0
 17:48:57.596,-1.76353,-1.13951,0.00770583,0,0,0
 17:48:57.597,-1.76316,-1.13957,0.00755959,0,0,0
 17:48:57.597,-1.76269,-1.13961,0.0074244,0,0,0
 17:48:57.597,-1.76222,-1.13966,0.00732836,0,0,0
 17:48:57.598,-1.76178,-1.13913,0.0072022,0,0,0
 17:48:57.598,-1.76134,-1.13859,0.00706323,0,0,0
 17:48:57.599,-1.76092,-1.13752,0.00692013,0,0,0
 17:48:57.599,-1.76116,-1.13704,0.00679711,0,0,0
 17:48:57.600,-1.76146,-1.13652,0.00671546,0,0,0
 17:48:57.601,-1.76108,-1.13593,0.00669759,0,0,0
 17:48:57.601,-1.76008,-1.13537,0.00666527,0,0,0
 17:48:57.601,-1.75969,-1.13432,0.006563,0,0,0
 17:48:57.602,-1.7593,-1.13388,0.00647895,0,0,0
 17:48:57.602,-1.75897,-1.13345,0.0063568,0,0,0
 17:48:57.603,-1.75864,-1.13297,0.00623479,0,0,0
 17:48:57.604,-1.75768,-1.13309,0.00615515,0,0,0
 17:48:57.604,-1.75729,-1.13328,0.00611439,0,0,0
 17:48:57.604,-1.75699,-1.13402,0.00602735,0,0,0
 17:48:57.605,-1.75664,-1.13471,0.00588657,0,0,0
 17:48:57.605,-1.75625,-1.1354,0.00578354,0,0,0
 17:48:57.606,-1.75586,-1.13494,0.00571114,0,0,0
 17:48:57.607,-1.75551,-1.13446,0.00566665,0,0,0
 17:48:57.607,-1.7552,-1.13459,0.00564066,0,0,0
 17:48:57.607,-1.75546,-1.13474,0.00560087,0,0,0
 17:48:57.608,-1.75453,-1.13487,0.00549425,0,0,0
 17:48:57.608,-1.75424,-1.13499,0.00545524,0,0,0
 17:48:57.609,-1.75395,-1.13449,0.00546482,0,0,0
 17:48:57.610,-1.75427,-1.1346,0.00542645,0,0,0
 17:48:57.610,-1.75395,-1.13416,0.00530282,0,0,0
 17:48:57.610,-1.753,-1.13372,0.00517753,0,0,0
 17:48:57.611,-1.75265,-1.13385,0.00512347,0,0,0
 17:48:57.611,-1.75238,-1.13339,0.00500077,0,0,0
 17:48:57.612,-1.75151,-1.13292,0.00485103,0,0,0
 17:48:57.613,-1.75064,-1.1325,0.00476745,0,0,0
 17:48:57.613,-1.75036,-1.13154,0.00471947,0,0,0
 17:48:57.614,-1.74951,-1.1306,0.00469841,0,0,0
 17:48:57.614,-1.74923,-1.13076,0.00465941,0,0,0
 17:48:57.614,-1.74838,-1.13091,0.00454134,0,0,0
 17:48:57.615,-1.74813,-1.13054,0.00439245,0,0,0
 17:48:57.615,-1.74726,-1.13077,0.00426029,0,0,0
 17:48:57.616,-1.7464,-1.13094,0.00414119,0,0,0
 17:48:57.617,-1.74556,-1.13104,0.00408882,0,0,0
 17:48:57.617,-1.74479,-1.13057,0.00404654,0,0,0
 17:48:57.618,-1.74458,-1.13071,0.00394244,0,0,0
 17:48:57.618,-1.74439,-1.13148,0.00380312,0,0,0
 17:48:57.618,-1.7447,-1.13223,0.00367465,0,0,0
 17:48:57.619,-1.74439,-1.13236,0.00358046,0,0,0
 17:48:57.620,-1.7441,-1.13185,0.00345631,0,0,0
 17:48:57.620,-1.74388,-1.13196,0.00335147,0,0,0
 17:48:57.621,-1.7443,-1.13216,0.00331398,0,0,0
 17:48:57.621,-1.74412,-1.13179,0.00329803,0,0,0
 17:48:57.621,-1.74388,-1.1325,0.00326272,0,0,0
 17:48:57.622,-1.74362,-1.13324,0.00312079,0,0,0
 17:48:57.623,-1.74283,-1.13403,0.00300591,0,0,0
 17:48:57.623,-1.74262,-1.13419,0.00293995,0,0,0
 17:48:57.623,-1.74179,-1.1343,0.00277991,0,0,0
 17:48:57.624,-1.74153,-1.13444,0.00264599,0,0,0
 17:48:57.624,-1.74072,-1.13464,0.00259165,0,0,0
 17:48:57.625,-1.7405,-1.13481,0.00248465,0,0,0
 17:48:57.626,-1.74034,-1.13489,0.00236592,0,0,0
 17:48:57.626,-1.74022,-1.13495,0.00226156,0,0,0
 17:48:57.626,-1.74008,-1.13508,0.00219614,0,0,0
 17:48:57.627,-1.7393,-1.13581,0.00213317,0,0,0
 17:48:57.627,-1.73854,-1.13592,0.00202636,0,0,0
 17:48:57.628,-1.73839,-1.13548,0.00188962,0,0,0
 17:48:57.629,-1.73819,-1.13561,0.00187507,0,0,0
 17:48:57.629,-1.73798,-1.13511,0.00182978,0,0,0
 17:48:57.630,-1.73782,-1.13462,0.00175906,0,0,0
 17:48:57.630,-1.73818,-1.13469,0.00169124,0,0,0
 17:48:57.631,-1.73731,-1.13415,0.00159097,0,0,0
 17:48:57.631,-1.73705,-1.13307,0.00143453,0,0,0
 17:48:57.631,-1.73684,-1.13265,0.00132337,0,0,0
 17:48:57.632,-1.73612,-1.13227,0.0013064,0,0,0
 17:48:57.633,-1.73599,-1.13242,0.00126768,0,0,0
 17:48:57.633,-1.73579,-1.13196,0.00113066,0,0,0
 17:48:57.633,-1.73558,-1.13214,0.000957178,0,0,0
 17:48:57.634,-1.73598,-1.13228,0.000811437,0,0,0
 17:48:57.634,-1.73637,-1.13295,0.000762443,0,0,0
 17:48:57.635,-1.7373,-1.133,0.000655465,0,0,0
 17:48:57.636,-1.73774,-1.13371,0.000567617,0,0,0
 17:48:57.636,-1.73816,-1.13385,0.000435272,0,0,0
 17:48:57.637,-1.73851,-1.13397,0.000261904,0,0,0
 17:48:57.637,-1.7383,-1.13403,0.000195056,0,0,0
 17:48:57.637,-1.73865,-1.13463,0.000131712,0,0,0
 17:48:57.638,-1.7384,-1.13469,3.69E-05,0,0,0
 17:48:57.639,-1.73878,-1.13479,-1.68E-05,0,0,0
 17:48:57.639,-1.73925,-1.1349,-9.47E-05,0,0,0
 17:48:57.640,-1.73915,-1.13442,-0.000255976,0,0,0
 17:48:57.640,-1.739,-1.13457,-0.000388195,0,0,0
 17:48:57.640,-1.73887,-1.13528,-0.000423104,0,0,0
 17:48:57.641,-1.73869,-1.13594,-0.000379706,0,0,0
 17:48:57.642,-1.73785,-1.1366,-0.000378565,0,0,0
 17:48:57.642,-1.7376,-1.13727,-0.000403667,0,0,0
 17:48:57.643,-1.73737,-1.13728,-0.000459063,0,0,0
 17:48:57.643,-1.73718,-1.13731,-0.00055328,0,0,0
 17:48:57.643,-1.73697,-1.13743,-0.00060887,0,0,0
 17:48:57.644,-1.73683,-1.13702,-0.000693699,0,0,0
 17:48:57.645,-1.73724,-1.13654,-0.000804789,0,0,0
 17:48:57.645,-1.73648,-1.13598,-0.000889544,0,0,0
 17:48:57.646,-1.73624,-1.13544,-0.000976001,0,0,0
 17:48:57.646,-1.73599,-1.13492,-0.00100929,0,0,0
 17:48:57.647,-1.73522,-1.13442,-0.00101507,0,0,0
 17:48:57.647,-1.7345,-1.13449,-0.00104188,0,0,0
 17:48:57.647,-1.73442,-1.13457,-0.00116008,0,0,0
 17:48:57.648,-1.73381,-1.1353,-0.00123355,0,0,0
 17:48:57.649,-1.73436,-1.13609,-0.00132024,0,0,0
 17:48:57.649,-1.73368,-1.13686,-0.0014226,0,0,0
 17:48:57.650,-1.73297,-1.13756,-0.00147306,0,0,0
 17:48:57.650,-1.73281,-1.13766,-0.00159462,0,0,0
 17:48:57.650,-1.73204,-1.13714,-0.00180041,0,0,0
 17:48:57.651,-1.73184,-1.13658,-0.00182107,0,0,0
 17:48:57.652,-1.73168,-1.13602,-0.00185379,0,0,0
 17:48:57.652,-1.73155,-1.13553,-0.00193833,0,0,0
 17:48:57.653,-1.73142,-1.13506,-0.00202342,0,0,0
 17:48:57.653,-1.73181,-1.1345,-0.0021357,0,0,0
 17:48:57.653,-1.73162,-1.1334,-0.00225189,0,0,0
 17:48:57.654,-1.73148,-1.13292,-0.0022173,0,0,0
 17:48:57.655,-1.73088,-1.13301,-0.00225467,0,0,0
 17:48:57.655,-1.73079,-1.13309,-0.00234671,0,0,0
 17:48:57.656,-1.73122,-1.13323,-0.002361,0,0,0
 17:48:57.656,-1.73112,-1.13337,-0.00241405,0,0,0
 17:48:57.656,-1.73107,-1.13352,-0.00250551,0,0,0
 17:48:57.657,-1.73155,-1.13368,-0.0026114,0,0,0
 17:48:57.658,-1.73203,-1.13442,-0.0026339,0,0,0
 17:48:57.658,-1.73256,-1.13511,-0.00260205,0,0,0
 17:48:57.659,-1.73247,-1.13515,-0.00260184,0,0,0
 17:48:57.659,-1.73233,-1.13524,-0.00264298,0,0,0
 17:48:57.659,-1.7322,-1.13591,-0.00267955,0,0,0
 17:48:57.660,-1.73149,-1.13599,-0.00273375,0,0,0
 17:48:57.661,-1.73135,-1.13617,-0.00280176,0,0,0
 17:48:57.661,-1.73128,-1.13638,-0.00289453,0,0,0
 17:48:57.662,-1.73069,-1.13652,-0.00298572,0,0,0
 17:48:57.662,-1.73002,-1.13596,-0.00309656,0,0,0
 17:48:57.663,-1.72924,-1.13601,-0.00317969,0,0,0
 17:48:57.663,-1.72908,-1.13622,-0.00319599,0,0,0
 17:48:57.663,-1.72839,-1.13641,-0.00319805,0,0,0
 17:48:57.664,-1.72772,-1.13589,-0.0032167,0,0,0
 17:48:57.665,-1.72764,-1.13597,-0.00315158,0,0,0
 17:48:57.665,-1.72751,-1.13606,-0.00323315,0,0,0
 17:48:57.666,-1.72739,-1.1361,-0.00338074,0,0,0
 17:48:57.666,-1.72669,-1.13672,-0.003498,0,0,0
 17:48:57.666,-1.72657,-1.1368,-0.0036464,0,0,0
 17:48:57.667,-1.72645,-1.13695,-0.00372883,0,0,0
 17:48:57.668,-1.72632,-1.13655,-0.00384208,0,0,0
 17:48:57.668,-1.72623,-1.13663,-0.00396349,0,0,0
 17:48:57.669,-1.7262,-1.13605,-0.00404727,0,0,0
 17:48:57.669,-1.72615,-1.13604,-0.00402134,0,0,0
 17:48:57.669,-1.72607,-1.13549,-0.00406654,0,0,0
 17:48:57.670,-1.72595,-1.13496,-0.00413931,0,0,0
 17:48:57.671,-1.72586,-1.13504,-0.00418055,0,0,0
 17:48:57.671,-1.72582,-1.13458,-0.00427774,0,0,0
 17:48:57.672,-1.72577,-1.13472,-0.00434452,0,0,0
 17:48:57.672,-1.7257,-1.13481,-0.00439843,0,0,0
 17:48:57.673,-1.72566,-1.13428,-0.00450863,0,0,0
 17:48:57.673,-1.72507,-1.13379,-0.00469766,0,0,0
 17:48:57.674,-1.72502,-1.1339,-0.00480397,0,0,0
 17:48:57.674,-1.72443,-1.1346,-0.00482633,0,0,0
 17:48:57.675,-1.7244,-1.13526,-0.00486242,0,0,0
 17:48:57.675,-1.72433,-1.13591,-0.00488623,0,0,0
 17:48:57.675,-1.72432,-1.1366,-0.00488286,0,0,0
 17:48:57.676,-1.72431,-1.1373,-0.00495855,0,0,0
 17:48:57.677,-1.72428,-1.13742,-0.00510534,0,0,0
 17:48:57.677,-1.7242,-1.13753,-0.00514742,0,0,0
 17:48:57.678,-1.7236,-1.13762,-0.00516199,0,0,0
 17:48:57.678,-1.72362,-1.13769,-0.00525499,0,0,0
 17:48:57.679,-1.72411,-1.13716,-0.00540724,0,0,0
 17:48:57.679,-1.72459,-1.13662,-0.00550624,0,0,0
 17:48:57.679,-1.72514,-1.13612,-0.00557741,0,0,0
 17:48:57.680,-1.72513,-1.13567,-0.00570093,0,0,0
 17:48:57.681,-1.72507,-1.13579,-0.00578148,0,0,0
 17:48:57.681,-1.72501,-1.13537,-0.00582681,0,0,0
 17:48:57.682,-1.72503,-1.13497,-0.00588315,0,0,0
 17:48:57.682,-1.72446,-1.13458,-0.00588693,0,0,0
 17:48:57.682,-1.72388,-1.13422,-0.00589098,0,0,0
 17:48:57.683,-1.72382,-1.13437,-0.00598485,0,0,0
 17:48:57.684,-1.72378,-1.13446,-0.00611792,0,0,0
 17:48:57.684,-1.72377,-1.13452,-0.00618389,0,0,0
 17:48:57.685,-1.72371,-1.13399,-0.00618918,0,0,0
 17:48:57.685,-1.72419,-1.13345,-0.00614238,0,0,0
 17:48:57.686,-1.72358,-1.13244,-0.00625644,0,0,0
 17:48:57.686,-1.72356,-1.13145,-0.00647626,0,0,0
 17:48:57.687,-1.7241,-1.13043,-0.00661648,0,0,0
 17:48:57.687,-1.72405,-1.12942,-0.00669038,0,0,0
 17:48:57.688,-1.72404,-1.12845,-0.0067104,0,0,0
 17:48:57.688,-1.72404,-1.12806,-0.00667309,0,0,0
 17:48:57.689,-1.72404,-1.12765,-0.00676767,0,0,0
 17:48:57.689,-1.72349,-1.12785,-0.00692326,0,0,0
 17:48:57.690,-1.72351,-1.12865,-0.00703599,0,0,0
 17:48:57.690,-1.72352,-1.12945,-0.0070698,0,0,0
 17:48:57.691,-1.72355,-1.13028,-0.00712975,0,0,0
 17:48:57.691,-1.72295,-1.13108,-0.00716508,0,0,0
 17:48:57.692,-1.72287,-1.13182,-0.00717519,0,0,0
 17:48:57.692,-1.72284,-1.13254,-0.00719774,0,0,0
 17:48:57.693,-1.72287,-1.1333,-0.00727188,0,0,0
 17:48:57.693,-1.72229,-1.13339,-0.00745671,0,0,0
 17:48:57.694,-1.72228,-1.13348,-0.00768175,0,0,0
 17:48:57.694,-1.72165,-1.13355,-0.00776206,0,0,0
 17:48:57.695,-1.72104,-1.13307,-0.00782014,0,0,0
 17:48:57.695,-1.72041,-1.13267,-0.00797136,0,0,0
 17:48:57.696,-1.72037,-1.13225,-0.00809533,0,0,0
 17:48:57.696,-1.72043,-1.13068,-0.00814496,0,0,0
 17:48:57.697,-1.71997,-1.12972,-0.00814959,0,0,0
 17:48:57.697,-1.72002,-1.12932,-0.00815125,0,0,0
 17:48:57.698,-1.72003,-1.12952,-0.00821656,0,0,0
 17:48:57.698,-1.72007,-1.12918,-0.00835115,0,0,0
 17:48:57.699,-1.72071,-1.1288,-0.00845855,0,0,0
 17:48:57.699,-1.7213,-1.12836,-0.00854015,0,0,0
 17:48:57.700,-1.72131,-1.12793,-0.00858213,0,0,0
 17:48:57.700,-1.72187,-1.12757,-0.00861151,0,0,0
 17:48:57.701,-1.72183,-1.12779,-0.00865039,0,0,0
 17:48:57.701,-1.72186,-1.12744,-0.00877121,0,0,0
 17:48:57.702,-1.72189,-1.12708,-0.00887842,0,0,0
 17:48:57.702,-1.72199,-1.12678,-0.00895766,0,0,0
 17:48:57.703,-1.72267,-1.12712,-0.00903307,0,0,0
 17:48:57.703,-1.72327,-1.12802,-0.00911909,0,0,0
 17:48:57.704,-1.72326,-1.12887,-0.00921949,0,0,0
 17:48:57.704,-1.72265,-1.12971,-0.00928118,0,0,0
 17:48:57.705,-1.72262,-1.13052,-0.00932976,0,0,0
 17:48:57.705,-1.72203,-1.13129,-0.00941767,0,0,0
 17:48:57.706,-1.72199,-1.13148,-0.00956368,0,0,0
 17:48:57.706,-1.722,-1.13223,-0.00978365,0,0,0
 17:48:57.707,-1.722,-1.13298,-0.00995134,0,0,0
 17:48:57.707,-1.72135,-1.1337,-0.0100019,0,0,0
 17:48:57.708,-1.72128,-1.13379,-0.0100964,0,0,0
 17:48:57.708,-1.7207,-1.13388,-0.0102823,0,0,0
 17:48:57.709,-1.72073,-1.13398,-0.0104139,0,0,0
 17:48:57.709,-1.72069,-1.13351,-0.0104721,0,0,0
 17:48:57.710,-1.72066,-1.13362,-0.0104994,0,0,0
 17:48:57.710,-1.72064,-1.13319,-0.0105701,0,0,0
 17:48:57.711,-1.72064,-1.1328,-0.0106935,0,0,0
 17:48:57.711,-1.72003,-1.13297,-0.0108667,0,0,0
 17:48:57.712,-1.71997,-1.13311,-0.0110271,0,0,0
 17:48:57.712,-1.71998,-1.13331,-0.0110934,0,0,0
 17:48:57.713,-1.71945,-1.13291,-0.0110971,0,0,0
 17:48:57.713,-1.71945,-1.13245,-0.011115,0,0,0
 17:48:57.714,-1.71946,-1.13258,-0.0112337,0,0,0
 17:48:57.714,-1.72005,-1.13271,-0.0114055,0,0,0
 17:48:57.715,-1.72006,-1.13225,-0.0115152,0,0,0
 17:48:57.715,-1.71949,-1.1318,-0.0116247,0,0,0
 17:48:57.716,-1.71949,-1.13191,-0.0116776,0,0,0
 17:48:57.716,-1.71945,-1.13144,-0.0117225,0,0,0
 17:48:57.717,-1.71996,-1.13041,-0.0118508,0,0,0
 17:48:57.717,-1.71985,-1.13057,-0.0119854,0,0,0
 17:48:57.718,-1.72033,-1.13018,-0.0121233,0,0,0
 17:48:57.718,-1.72146,-1.13038,-0.0122025,0,0,0
 17:48:57.719,-1.72258,-1.12996,-0.0123253,0,0,0
 17:48:57.719,-1.72312,-1.13014,-0.0124571,0,0,0
 17:48:57.720,-1.72365,-1.13035,-0.0125232,0,0,0
 17:48:57.720,-1.72359,-1.13052,-0.0125499,0,0,0
 17:48:57.721,-1.72415,-1.13071,-0.0126678,0,0,0
 17:48:57.721,-1.72474,-1.1309,-0.0128512,0,0,0
 17:48:57.722,-1.72467,-1.13107,-0.0130101,0,0,0
 17:48:57.722,-1.72465,-1.13124,-0.0130621,0,0,0
 17:48:57.723,-1.72466,-1.13142,-0.0130606,0,0,0
 17:48:57.723,-1.72469,-1.13223,-0.0130944,0,0,0
 17:48:57.724,-1.72469,-1.13412,-0.0130812,0,0,0
 17:48:57.724,-1.72399,-1.13534,-0.0131417,0,0,0
 17:48:57.725,-1.72325,-1.13596,-0.0132739,0,0,0
 17:48:57.725,-1.72312,-1.13663,-0.0133662,0,0,0
 17:48:57.726,-1.72303,-1.13732,-0.0134178,0,0,0
 17:48:57.726,-1.723,-1.13679,-0.0135684,0,0,0
 17:48:57.727,-1.72295,-1.13626,-0.0137328,0,0,0
 17:48:57.727,-1.7223,-1.13574,-0.0138716,0,0,0
 17:48:57.728,-1.72169,-1.1346,-0.0140134,0,0,0
 17:48:57.728,-1.72105,-1.13346,-0.0140227,0,0,0
 17:48:57.729,-1.72101,-1.13182,-0.0140226,0,0,0
 17:48:57.729,-1.7204,-1.13078,-0.0139781,0,0,0
 17:48:57.730,-1.71981,-1.13036,-0.014035,0,0,0
 17:48:57.730,-1.71921,-1.13053,-0.0141545,0,0,0
 17:48:57.731,-1.7186,-1.13015,-0.014265,0,0,0
 17:48:57.731,-1.71804,-1.12972,-0.0143876,0,0,0
 17:48:57.732,-1.7175,-1.12992,-0.0144925,0,0,0
 17:48:57.732,-1.71749,-1.12954,-0.0145496,0,0,0
 17:48:57.733,-1.71807,-1.12972,-0.0145624,0,0,0
 17:48:57.733,-1.71867,-1.12933,-0.0146451,0,0,0
 17:48:57.734,-1.71929,-1.12957,-0.0147895,0,0,0
 17:48:57.734,-1.71934,-1.12983,-0.0149204,0,0,0
 17:48:57.735,-1.7194,-1.13006,-0.0150111,0,0,0
 17:48:57.735,-1.7194,-1.1308,-0.0150461,0,0,0
 17:48:57.736,-1.71935,-1.13091,-0.0150868,0,0,0
 17:48:57.736,-1.71931,-1.13098,-0.0151401,0,0,0
 17:48:57.737,-1.71934,-1.13219,-0.0152102,0,0,0
 17:48:57.737,-1.71944,-1.13235,-0.0153669,0,0,0
 17:48:57.738,-1.7201,-1.13314,-0.0154668,0,0,0
 17:48:57.738,-1.72015,-1.13392,-0.0155148,0,0,0
 17:48:57.739,-1.72012,-1.13457,-0.0155515,0,0,0
 17:48:57.739,-1.71954,-1.13521,-0.0156411,0,0,0
 17:48:57.740,-1.71953,-1.13534,-0.0157481,0,0,0
 17:48:57.740,-1.71891,-1.13546,-0.0158164,0,0,0
 17:48:57.741,-1.7183,-1.13607,-0.0158676,0,0,0
 17:48:57.741,-1.71831,-1.13611,-0.0159084,0,0,0
 17:48:57.742,-1.7184,-1.13624,-0.0159868,0,0,0
 17:48:57.742,-1.71844,-1.13574,-0.0161368,0,0,0
 17:48:57.743,-1.71905,-1.13463,-0.0162246,0,0,0
 17:48:57.743,-1.71852,-1.1341,-0.0162547,0,0,0
 17:48:57.744,-1.71853,-1.13364,-0.0163785,0,0,0
 17:48:57.745,-1.71851,-1.13323,-0.0164898,0,0,0
 17:48:57.745,-1.71795,-1.1328,-0.0165996,0,0,0
 17:48:57.745,-1.71796,-1.13235,-0.0166171,0,0,0
 17:48:57.746,-1.71737,-1.13192,-0.0165954,0,0,0
 17:48:57.746,-1.71679,-1.13149,-0.0166266,0,0,0
 17:48:57.747,-1.71684,-1.13106,-0.0166565,0,0,0
 17:48:57.748,-1.71694,-1.13064,-0.0167774,0,0,0
 17:48:57.748,-1.71701,-1.13079,-0.016895,0,0,0
 17:48:57.748,-1.71704,-1.13089,-0.0169606,0,0,0
 17:48:57.749,-1.71703,-1.13099,-0.0169872,0,0,0
 17:48:57.749,-1.71704,-1.13109,-0.016974,0,0,0
 17:48:57.750,-1.71708,-1.13121,-0.0170529,0,0,0
 17:48:57.750,-1.71709,-1.13082,-0.0171495,0,0,0
 17:48:57.751,-1.71713,-1.1304,-0.017206,0,0,0
 17:48:57.751,-1.71776,-1.1299,-0.0173144,0,0,0
 17:48:57.752,-1.71838,-1.13059,-0.0174151,0,0,0
 17:48:57.752,-1.71845,-1.13076,-0.0174928,0,0,0
 17:48:57.753,-1.71845,-1.13088,-0.0175456,0,0,0
 17:48:57.753,-1.7179,-1.13159,-0.0175542,0,0,0
 17:48:57.754,-1.7174,-1.13236,-0.0175756,0,0,0
 17:48:57.754,-1.7169,-1.13254,-0.017614,0,0,0
 17:48:57.755,-1.71638,-1.13324,-0.0176625,0,0,0
 17:48:57.755,-1.71585,-1.13393,-0.0176983,0,0,0
 17:48:57.756,-1.71534,-1.13404,-0.0177247,0,0,0
 17:48:57.760,-1.71538,-1.13416,-0.0177387,0,0,0
 17:48:57.760,-1.71546,-1.13486,-0.0177348,0,0,0
 17:48:57.760,-1.71555,-1.13501,-0.017814,0,0,0
 17:48:57.760,-1.71566,-1.13516,-0.0178926,0,0,0
 17:48:57.760,-1.71517,-1.13528,-0.0179851,0,0,0
 17:48:57.760,-1.71466,-1.13477,-0.0180817,0,0,0
 17:48:57.760,-1.71468,-1.13429,-0.0181533,0,0,0
 17:48:57.760,-1.71465,-1.1338,-0.0182389,0,0,0
 17:48:57.760,-1.71466,-1.13336,-0.0182974,0,0,0
 17:48:57.761,-1.71473,-1.13231,-0.0183446,0,0,0
 17:48:57.761,-1.71479,-1.13183,-0.0183879,0,0,0
 17:48:57.762,-1.71482,-1.13086,-0.0184759,0,0,0
 17:48:57.762,-1.71435,-1.12937,-0.0185525,0,0,0
 17:48:57.763,-1.71389,-1.1284,-0.0186772,0,0,0
 17:48:57.764,-1.71396,-1.12736,-0.0188421,0,0,0
 17:48:57.764,-1.71397,-1.12693,-0.0189647,0,0,0
 17:48:57.764,-1.71342,-1.12661,-0.0191005,0,0,0
 17:48:57.765,-1.71351,-1.12634,-0.019235,0,0,0
 17:48:57.765,-1.71365,-1.12662,-0.0193372,0,0,0
 17:48:57.766,-1.71435,-1.12689,-0.0194267,0,0,0
 17:48:57.766,-1.71499,-1.12709,-0.0194513,0,0,0
 17:48:57.767,-1.71504,-1.12725,-0.0195421,0,0,0
 17:48:57.767,-1.7151,-1.12741,-0.0196463,0,0,0
 17:48:57.768,-1.71516,-1.12815,-0.0196803,0,0,0
 17:48:57.768,-1.71525,-1.12893,-0.0197935,0,0,0
 17:48:57.769,-1.71588,-1.12971,-0.0198941,0,0,0
 17:48:57.769,-1.71712,-1.13049,-0.0199281,0,0,0
 17:48:57.770,-1.71781,-1.13126,-0.0200139,0,0,0
 17:48:57.771,-1.71847,-1.13137,-0.0200912,0,0,0
 17:48:57.771,-1.71964,-1.13148,-0.0201042,0,0,0
 17:48:57.771,-1.7202,-1.13166,-0.0201708,0,0,0
 17:48:57.772,-1.72075,-1.13247,-0.0202467,0,0,0
 17:48:57.772,-1.72079,-1.13327,-0.0203209,0,0,0
 17:48:57.773,-1.72142,-1.13339,-0.0204124,0,0,0
 17:48:57.773,-1.72205,-1.13353,-0.0205168,0,0,0
 17:48:57.774,-1.72204,-1.13433,-0.0205396,0,0,0
 17:48:57.774,-1.72143,-1.13505,-0.0205237,0,0,0
 17:48:57.775,-1.72083,-1.13512,-0.0205509,0,0,0
 17:48:57.775,-1.72025,-1.13464,-0.020622,0,0,0
 17:48:57.776,-1.71961,-1.13473,-0.0207299,0,0,0
 17:48:57.776,-1.71899,-1.13427,-0.0208683,0,0,0
 17:48:57.776,-1.71843,-1.13385,-0.0210056,0,0,0
 17:48:57.776,-1.71786,-1.13345,-0.0210367,0,0,0
 17:48:57.777,-1.7179,-1.13306,-0.0209877,0,0,0
 17:48:57.777,-1.71797,-1.13207,-0.0210348,0,0,0
 17:48:57.778,-1.718,-1.13104,-0.0211484,0,0,0
 17:48:57.779,-1.7174,-1.13056,-0.0212325,0,0,0
 17:48:57.779,-1.71739,-1.13015,-0.0213428,0,0,0
 17:48:57.779,-1.71684,-1.12982,-0.0214789,0,0,0
 17:48:57.780,-1.71688,-1.13,-0.0215575,0,0,0
 17:48:57.780,-1.71693,-1.13072,-0.0215921,0,0,0
 17:48:57.781,-1.717,-1.13145,-0.0217057,0,0,0
 17:48:57.781,-1.71705,-1.1316,-0.021877,0,0,0
 17:48:57.782,-1.71711,-1.13233,-0.0219248,0,0,0
 17:48:57.782,-1.71718,-1.13247,-0.02203,0,0,0
 17:48:57.783,-1.7178,-1.13256,-0.0221615,0,0,0
 17:48:57.783,-1.71842,-1.13268,-0.022227,0,0,0
 17:48:57.784,-1.71851,-1.13281,-0.0222517,0,0,0
 17:48:57.784,-1.71803,-1.13291,-0.0222891,0,0,0
 17:48:57.785,-1.71803,-1.13296,-0.022448,0,0,0
 17:48:57.785,-1.71803,-1.13301,-0.0226207,0,0,0
 17:48:57.786,-1.71807,-1.13309,-0.022779,0,0,0
 17:48:57.786,-1.71755,-1.13379,-0.0229062,0,0,0
 17:48:57.787,-1.71708,-1.13455,-0.0229674,0,0,0
 17:48:57.787,-1.71715,-1.13472,-0.0230468,0,0,0
 17:48:57.788,-1.71713,-1.13535,-0.023084,0,0,0
 17:48:57.789,-1.71711,-1.136,-0.0230956,0,0,0
 17:48:57.789,-1.71645,-1.1361,-0.023126,0,0,0
 17:48:57.789,-1.71576,-1.13619,-0.0231576,0,0,0
 17:48:57.790,-1.71572,-1.13562,-0.0232174,0,0,0
 17:48:57.790,-1.71514,-1.13445,-0.0232931,0,0,0
 17:48:57.791,-1.71525,-1.13343,-0.0233799,0,0,0
 17:48:57.792,-1.71539,-1.13311,-0.0233953,0,0,0
 17:48:57.792,-1.71549,-1.13266,-0.0234776,0,0,0
 17:48:57.792,-1.71561,-1.13214,-0.0235987,0,0,0
 17:48:57.793,-1.71627,-1.13164,-0.0235883,0,0,0
 17:48:57.793,-1.71574,-1.13118,-0.0236051,0,0,0
 17:48:57.794,-1.71572,-1.13069,-0.0237026,0,0,0
 17:48:57.795,-1.71574,-1.13024,-0.0237862,0,0,0
 17:48:57.795,-1.71578,-1.12989,-0.0238691,0,0,0
 17:48:57.796,-1.71584,-1.1307,-0.0239698,0,0,0
 17:48:57.796,-1.71588,-1.13086,-0.0240358,0,0,0
 17:48:57.796,-1.71594,-1.13096,-0.0240085,0,0,0
 17:48:57.797,-1.71544,-1.13107,-0.0239806,0,0,0
 17:48:57.797,-1.71494,-1.13123,-0.0240722,0,0,0
 17:48:57.798,-1.71498,-1.13143,-0.0241254,0,0,0
 17:48:57.799,-1.71444,-1.13154,-0.0243105,0,0,0
 17:48:57.799,-1.71393,-1.13164,-0.0245216,0,0,0
 17:48:57.800,-1.71402,-1.13175,-0.0246658,0,0,0
 17:48:57.800,-1.71417,-1.13132,-0.0247995,0,0,0
 17:48:57.800,-1.71486,-1.13146,-0.024877,0,0,0
 17:48:57.801,-1.71551,-1.13159,-0.0249161,0,0,0
 17:48:57.802,-1.71614,-1.13165,-0.024942,0,0,0
 17:48:57.802,-1.71619,-1.13172,-0.024981,0,0,0
 17:48:57.802,-1.71566,-1.13238,-0.0249764,0,0,0
 17:48:57.803,-1.71578,-1.13255,-0.0250274,0,0,0
 17:48:57.803,-1.71642,-1.13276,-0.0251328,0,0,0
 17:48:57.804,-1.71639,-1.13348,-0.0252101,0,0,0
 17:48:57.805,-1.71579,-1.1336,-0.025212,0,0,0
 17:48:57.805,-1.71637,-1.13372,-0.0252401,0,0,0
 17:48:57.806,-1.71645,-1.1344,-0.0253013,0,0,0
 17:48:57.806,-1.71711,-1.13447,-0.0254198,0,0,0
 17:48:57.806,-1.71713,-1.13397,-0.0255832,0,0,0
 17:48:57.807,-1.71776,-1.13354,-0.0257329,0,0,0
 17:48:57.808,-1.71839,-1.13314,-0.0258422,0,0,0
 17:48:57.808,-1.71841,-1.13221,-0.0258508,0,0,0
 17:48:57.809,-1.71838,-1.13179,-0.0258693,0,0,0
 17:48:57.809,-1.71836,-1.1308,-0.0259311,0,0,0
 17:48:57.809,-1.71891,-1.13047,-0.0259891,0,0,0
 17:48:57.810,-1.71772,-1.13006,-0.0260998,0,0,0
 17:48:57.811,-1.71718,-1.13016,-0.0262312,0,0,0
 17:48:57.811,-1.71673,-1.13031,-0.0262682,0,0,0
 17:48:57.812,-1.71631,-1.13054,-0.026357,0,0,0
 17:48:57.812,-1.71587,-1.13074,-0.0265131,0,0,0
 17:48:57.812,-1.71592,-1.13087,-0.026671,0,0,0
 17:48:57.813,-1.71537,-1.13099,-0.0267638,0,0,0
 17:48:57.813,-1.71538,-1.13107,-0.026817,0,0,0
 17:48:57.814,-1.7154,-1.13118,-0.0268571,0,0,0
 17:48:57.815,-1.71545,-1.13072,-0.0269137,0,0,0
 17:48:57.815,-1.71556,-1.13025,-0.027074,0,0,0
 17:48:57.815,-1.71568,-1.12984,-0.0271816,0,0,0
 17:48:57.816,-1.71575,-1.13011,-0.0271806,0,0,0
 17:48:57.816,-1.71524,-1.12982,-0.0273429,0,0,0
 17:48:57.817,-1.71473,-1.13056,-0.0274966,0,0,0
 17:48:57.818,-1.71426,-1.13065,-0.0275345,0,0,0
 17:48:57.818,-1.71376,-1.13078,-0.0275996,0,0,0
 17:48:57.818,-1.71326,-1.13097,-0.0277049,0,0,0
 17:48:57.819,-1.71337,-1.13175,-0.0277923,0,0,0
 17:48:57.819,-1.71352,-1.13252,-0.0278128,0,0,0
 17:48:57.820,-1.71367,-1.13324,-0.0277673,0,0,0
 17:48:57.821,-1.71382,-1.13396,-0.0278542,0,0,0
 17:48:57.821,-1.7139,-1.13412,-0.0280793,0,0,0
 17:48:57.822,-1.71396,-1.13423,-0.0282519,0,0,0
 17:48:57.822,-1.71343,-1.1337,-0.0283494,0,0,0
 17:48:57.822,-1.7135,-1.13321,-0.0285388,0,0,0
 17:48:57.823,-1.71356,-1.13218,-0.0287189,0,0,0
 17:48:57.824,-1.71361,-1.1312,-0.0287935,0,0,0
 17:48:57.824,-1.71368,-1.13077,-0.0288766,0,0,0
 17:48:57.825,-1.71377,-1.13029,-0.0289987,0,0,0
 17:48:57.825,-1.7138,-1.12983,-0.0291218,0,0,0
 17:48:57.825,-1.71384,-1.12942,-0.029192,0,0,0
 17:48:57.826,-1.71387,-1.12901,-0.0292488,0,0,0
 17:48:57.827,-1.7133,-1.12915,-0.0293025,0,0,0
 17:48:57.827,-1.71332,-1.12872,-0.0293995,0,0,0
 17:48:57.828,-1.71278,-1.12829,-0.0295221,0,0,0
 17:48:57.828,-1.71289,-1.12787,-0.0295507,0,0,0
 17:48:57.828,-1.713,-1.12746,-0.0296582,0,0,0
 17:48:57.829,-1.71309,-1.12766,-0.0298155,0,0,0
 17:48:57.829,-1.71373,-1.12731,-0.0299507,0,0,0
 17:48:57.830,-1.71324,-1.12751,-0.0299887,0,0,0
 17:48:57.831,-1.71272,-1.12769,-0.0300409,0,0,0
 17:48:57.831,-1.71223,-1.12789,-0.0301719,0,0,0
 17:48:57.832,-1.71174,-1.12813,-0.0303028,0,0,0
 17:48:57.832,-1.71177,-1.12833,-0.0304882,0,0,0
 17:48:57.832,-1.71187,-1.12852,-0.0307117,0,0,0
 17:48:57.833,-1.71202,-1.12875,-0.0308152,0,0,0
 17:48:57.834,-1.71274,-1.12898,-0.0308391,0,0,0
 17:48:57.834,-1.71223,-1.12855,-0.0308954,0,0,0
 17:48:57.834,-1.7123,-1.12809,-0.0310571,0,0,0
 17:48:57.835,-1.7118,-1.12763,-0.0312316,0,0,0
 17:48:57.835,-1.71187,-1.12723,-0.0313004,0,0,0
 17:48:57.836,-1.71133,-1.1269,-0.031397,0,0,0
 17:48:57.837,-1.71082,-1.12707,-0.0315813,0,0,0
 17:48:57.837,-1.71093,-1.12662,-0.0316494,0,0,0
 17:48:57.838,-1.71104,-1.12677,-0.0316207,0,0,0
 17:48:57.838,-1.71118,-1.12693,-0.0316575,0,0,0
 17:48:57.838,-1.71185,-1.12707,-0.0317746,0,0,0
 17:48:57.839,-1.71195,-1.12727,-0.0319182,0,0,0
 17:48:57.840,-1.71204,-1.1269,-0.0319735,0,0,0
 17:48:57.840,-1.71211,-1.12652,-0.0319366,0,0,0
 17:48:57.841,-1.71157,-1.12557,-0.0320494,0,0,0
 17:48:57.841,-1.71164,-1.12464,-0.0322675,0,0,0
 17:48:57.841,-1.71172,-1.12428,-0.0324012,0,0,0
 17:48:57.842,-1.71238,-1.12452,-0.0324251,0,0,0
 17:48:57.843,-1.71247,-1.12424,-0.0324667,0,0,0
 17:48:57.843,-1.71199,-1.12458,-0.0324643,0,0,0
 17:48:57.844,-1.71206,-1.12491,-0.0324496,0,0,0
 17:48:57.844,-1.71214,-1.12461,-0.032597,0,0,0
 17:48:57.845,-1.71167,-1.12546,-0.0327227,0,0,0
 17:48:57.845,-1.71118,-1.12632,-0.0327568,0,0,0
 17:48:57.845,-1.71067,-1.12655,-0.032822,0,0,0
 17:48:57.846,-1.71074,-1.12671,-0.0329267,0,0,0
 17:48:57.847,-1.71077,-1.12688,-0.0330322,0,0,0
 17:48:57.847,-1.71138,-1.12712,-0.0331117,0,0,0
 17:48:57.848,-1.71148,-1.12683,-0.0331935,0,0,0
 17:48:57.848,-1.7116,-1.12651,-0.0333143,0,0,0
 17:48:57.848,-1.71169,-1.12669,-0.0333788,0,0,0
 17:48:57.849,-1.71176,-1.12747,-0.0334398,0,0,0
 17:48:57.850,-1.71183,-1.12769,-0.0335444,0,0,0
 17:48:57.850,-1.71188,-1.12784,-0.0336762,0,0,0
 17:48:57.851,-1.71197,-1.12799,-0.0337277,0,0,0
 17:48:57.851,-1.71205,-1.12815,-0.0337527,0,0,0
 17:48:57.851,-1.71211,-1.12834,-0.0337522,0,0,0
 17:48:57.852,-1.71206,-1.1285,-0.0337675,0,0,0
 17:48:57.853,-1.71201,-1.12866,-0.0337828,0,0,0
 17:48:57.853,-1.71212,-1.12888,-0.0339266,0,0,0
 17:48:57.854,-1.71221,-1.12916,-0.0339918,0,0,0
 17:48:57.854,-2.5129,-1.12923,-0.0340252,0,0,0
 17:48:57.855,-2.50491,-1.12936,-0.0340767,0,0,0
 17:48:57.855,-2.49702,-1.12944,-0.0341402,0,0,0
 17:48:57.856,-2.48922,-1.12953,-0.0342038,0,0,0
 17:48:57.856,-2.48149,-1.12961,-0.0342675,0,0,0
 17:48:57.857,-2.47391,-1.12981,-0.0342764,0,0,0
 17:48:57.857,-2.46642,-1.13001,-0.0342854,0,0,0
 17:48:57.858,-2.45843,-1.13021,-0.0342946,0,0,0
 17:48:57.858,-2.45103,-1.12982,-0.034396,0,0,0
 17:48:57.859,-2.44369,-1.12941,-0.0345372,0,0,0
 17:48:57.859,-3.23907,-1.12948,-0.0345706,0,0,0
 17:48:57.860,-3.22377,-1.12963,-0.034621,0,0,0
 17:48:57.860,-3.20863,-1.12977,-0.0346714,0,0,0
 17:48:57.861,-3.19364,-1.12992,-0.0347221,0,0,0
 17:48:57.861,-3.98354,-1.12999,-0.0347555,0,0,0
 17:48:57.861,-3.96158,-1.13025,-0.0347987,0,0,0
 17:48:57.862,-3.93984,-1.1305,-0.0348421,0,0,0
 17:48:57.863,-3.91832,-1.13075,-0.0348858,0,0,0
 17:48:57.863,-3.89701,-1.13099,-0.0349297,0,0,0
 17:48:57.864,-3.87592,-1.13124,-0.0349738,0,0,0
 17:48:57.864,-3.85446,-1.13148,-0.0350182,0,0,0
 17:48:57.864,-3.83313,-1.13162,-0.0350388,0,0,0
 17:48:57.865,-3.81201,-1.13176,-0.0350595,0,0,0
 17:48:57.866,-3.79111,-1.1319,-0.0350804,0,0,0
 17:48:57.866,-3.77041,-1.13204,-0.0351014,0,0,0
 17:48:57.867,-3.74992,-1.13218,-0.0351226,0,0,0
 17:48:57.867,-3.72964,-1.13231,-0.0351438,0,0,0
 17:48:57.867,-3.70956,-1.13245,-0.0351653,0,0,0
 17:48:57.868,-3.68967,-1.13258,-0.0351868,0,0,0
 17:48:57.869,-3.66999,-1.13271,-0.0352085,0,0,0
 17:48:57.869,-3.65051,-1.13284,-0.0352303,0,0,0
 17:48:57.870,-3.63122,-1.13297,-0.0352523,0,0,0
 17:48:57.870,-3.61212,-1.1331,-0.0352744,0,0,0
 17:48:57.871,-3.59321,-1.13322,-0.0352965,0,0,0
 17:48:57.871,-3.57449,-1.13335,-0.0353189,0,0,0
 17:48:57.872,-3.55596,-1.13347,-0.0353413,0,0,0
 17:48:57.872,-3.53762,-1.13359,-0.0353638,0,0,0
 17:48:57.873,-3.51946,-1.13371,-0.0353865,0,0,0
 17:48:57.873,-3.50148,-1.13383,-0.0354093,0,0,0
 17:48:57.874,-3.48368,-1.13395,-0.0354322,0,0,0
 17:48:57.874,-3.46605,-1.13407,-0.0354551,0,0,0
 17:48:57.875,-3.44861,-1.13418,-0.0354782,0,0,0
 17:48:57.875,-3.43134,-1.1343,-0.0355014,0,0,0
 17:48:57.876,-3.41424,-1.13441,-0.0355248,0,0,0
 17:48:57.876,-3.39731,-1.13453,-0.0355482,0,0,0
 17:48:57.877,-3.38055,-1.13464,-0.0355717,0,0,0
 17:48:57.877,-3.36396,-1.13475,-0.0355953,0,0,0
 17:48:57.877,-3.34753,-1.13486,-0.035619,0,0,0
 17:48:57.878,-3.33127,-1.13497,-0.0356428,0,0,0
 17:48:57.879,-3.31517,-1.13507,-0.0356667,0,0,0
 17:48:57.879,-3.29924,-1.13518,-0.0356907,0,0,0
 17:48:57.880,-3.28346,-1.13528,-0.0357147,0,0,0
 17:48:57.880,-3.26784,-1.13539,-0.0357389,0,0,0
 17:48:57.881,-3.25235,-1.1361,-0.0357311,0,0,0
 17:48:57.881,-3.23702,-1.13681,-0.0357239,0,0,0
 17:48:57.882,-3.22185,-1.13742,-0.0357829,0,0,0
 17:48:57.882,-3.20685,-1.1375,-0.0357949,0,0,0
 17:48:57.883,-3.192,-1.13758,-0.035807,0,0,0
 17:48:57.883,-3.1773,-1.13766,-0.0358192,0,0,0
 17:48:57.884,-3.16277,-1.1372,-0.0359288,0,0,0
 17:48:57.884,-3.14833,-1.13675,-0.0359728,0,0,0
 17:48:57.885,-3.13401,-1.13631,-0.0360571,0,0,0
 17:48:57.885,-3.11988,-1.13584,-0.0361792,0,0,0
 17:48:57.886,-3.10592,-1.13587,-0.0362429,0,0,0
 17:48:57.886,-3.09204,-1.13532,-0.0363122,0,0,0
 17:48:57.887,-3.07829,-1.13534,-0.0364569,0,0,0
 17:48:57.887,-3.06472,-1.1354,-0.036574,0,0,0
 17:48:57.888,-3.05135,-1.13497,-0.0366801,0,0,0
 17:48:57.888,-3.03809,-1.13453,-0.0367604,0,0,0
 17:48:57.889,-3.0249,-1.13523,-0.036834,0,0,0
 17:48:57.889,-3.01245,-1.13479,-0.036994,0,0,0
 17:48:57.890,-2.99959,-1.13434,-0.0370862,0,0,0
 17:48:57.890,-2.98686,-1.1339,-0.0371651,0,0,0
 17:48:57.891,-2.97424,-1.1335,-0.0373239,0,0,0
 17:48:57.891,-2.96169,-1.13367,-0.037441,0,0,0
 17:48:57.892,-2.9487,-1.13381,-0.0374783,0,0,0
 17:48:57.892,-2.93642,-1.13394,-0.037542,0,0,0
 17:48:57.893,-2.92429,-1.1346,-0.0376679,0,0,0
 17:48:57.893,-2.91228,-1.13465,-0.0377578,0,0,0
 17:48:57.893,-2.90092,-1.13471,-0.0377556,0,0,0
 17:48:57.894,-2.88973,-1.13539,-0.0378156,0,0,0
 17:48:57.895,-2.87751,-1.13545,-0.0380372,0,0,0
 17:48:57.895,-2.86596,-1.13496,-0.0382224,0,0,0
 17:48:57.896,-2.85508,-1.13519,-0.0382209,0,0,0
 17:48:57.896,-2.84373,-1.13484,-0.0382747,0,0,0
 17:48:57.897,-2.83255,-1.135,-0.0384037,0,0,0
 17:48:57.897,-2.82148,-1.13456,-0.0385614,0,0,0
 17:48:57.898,-2.80987,-1.13469,-0.0385206,0,0,0
 17:48:57.898,-2.79893,-1.13473,-0.0384935,0,0,0
 17:48:57.899,-2.78811,-1.13479,-0.0385587,0,0,0
 17:48:57.899,-2.77686,-1.13492,-0.0386892,0,0,0
 17:48:57.900,-2.76626,-1.13503,-0.0388074,0,0,0
 17:48:57.900,-2.75572,-1.13456,-0.0388755,0,0,0
 17:48:57.901,-2.74528,-1.13468,-0.0389028,0,0,0
 17:48:57.901,-2.73446,-1.13424,-0.0390609,0,0,0
 17:48:57.902,-2.72376,-1.13383,-0.0392314,0,0,0
 17:48:57.902,-2.71319,-1.13349,-0.0393092,0,0,0
 17:48:57.903,-2.70272,-1.13314,-0.0394131,0,0,0
 17:48:57.903,-2.69294,-1.13276,-0.0395559,0,0,0
 17:48:57.904,-2.68326,-1.13295,-0.0396184,0,0,0
 17:48:57.904,-2.67369,-1.13316,-0.0396147,0,0,0
 17:48:57.905,-2.66421,-1.13338,-0.0396247,0,0,0
 17:48:57.905,-2.65481,-1.13295,-0.0397015,0,0,0
 17:48:57.906,-2.64548,-1.13247,-0.0397517,0,0,0
 17:48:57.906,-2.63566,-1.13203,-0.0397754,0,0,0
 17:48:57.907,-2.62591,-1.13221,-0.0398005,0,0,0
 17:48:57.907,-2.61682,-1.13244,-0.0398388,0,0,0
 17:48:57.908,-2.60786,-1.13202,-0.0398628,0,0,0
 17:48:57.908,-2.59898,-1.13216,-0.0399002,0,0,0
 17:48:57.909,-2.59074,-1.13176,-0.0399775,0,0,0
 17:48:57.909,-2.58206,-1.13193,-0.0400406,0,0,0
 17:48:57.909,-2.57289,-1.13206,-0.0400908,0,0,0
 17:48:57.910,-2.56436,-1.13215,-0.0400886,0,0,0
 17:48:57.911,-2.55589,-1.13228,-0.040193,0,0,0
 17:48:57.911,-2.54756,-1.13299,-0.040403,0,0,0
 17:48:57.912,-2.53926,-1.13309,-0.0405344,0,0,0
 17:48:57.912,-2.53104,-1.13321,-0.040626,0,0,0
 17:48:57.913,-2.52353,-1.13333,-0.0407429,0,0,0
 17:48:57.913,-2.51556,-1.13406,-0.0407934,0,0,0
 17:48:57.914,-2.50699,-1.13364,-0.0408847,0,0,0
 17:48:57.914,-2.49841,-1.13319,-0.0409782,0,0,0
 17:48:57.915,-2.49051,-1.13331,-0.041033,0,0,0
 17:48:57.915,-2.48267,-1.13341,-0.0410881,0,0,0
 17:48:57.916,-2.47441,-1.13349,-0.0411679,0,0,0
 17:48:57.916,-2.46688,-1.13413,-0.0412739,0,0,0
 17:48:57.917,-2.45941,-1.13424,-0.0413526,0,0,0
 17:48:57.917,-2.45199,-1.13495,-0.0414204,0,0,0
 17:48:57.918,-2.44463,-1.13564,-0.0415686,0,0,0
 17:48:57.918,-2.43738,-1.13572,-0.0417271,0,0,0
 17:48:57.919,-2.43015,-1.13525,-0.0418318,0,0,0
 17:48:57.919,-2.42304,-1.13539,-0.0419246,0,0,0
 17:48:57.920,-2.41544,-1.13492,-0.0420806,0,0,0
 17:48:57.920,-2.40852,-1.13443,-0.0421693,0,0,0
 17:48:57.921,-2.40219,-1.13399,-0.0421405,0,0,0
 17:48:57.921,-2.39593,-1.13361,-0.0422035,0,0,0
 17:48:57.922,-2.3892,-1.13318,-0.0422917,0,0,0
 17:48:57.922,-2.38257,-1.1333,-0.0423149,0,0,0
 17:48:57.923,-2.376,-1.13341,-0.0423122,0,0,0
 17:48:57.923,-2.3694,-1.13349,-0.0423646,0,0,0
 17:48:57.924,-2.36232,-1.13299,-0.04248,0,0,0
 17:48:57.924,-2.35645,-1.13256,-0.0425956,0,0,0
 17:48:57.925,-2.35003,-1.13274,-0.0427017,0,0,0
 17:48:57.925,-2.34312,-1.13287,-0.0427806,0,0,0
 17:48:57.926,-2.3363,-1.13235,-0.042856,0,0,0
 17:48:57.926,-2.33014,-1.13238,-0.0429467,0,0,0
 17:48:57.927,-2.32405,-1.13302,-0.0430007,0,0,0
 17:48:57.927,-2.31806,-1.13376,-0.0430808,0,0,0
 17:48:57.928,-2.31217,-1.1346,-0.0431473,0,0,0
 17:48:57.928,-2.30629,-1.13543,-0.0431892,0,0,0
 17:48:57.929,-2.30042,-1.13609,-0.0432192,0,0,0
 17:48:57.930,-2.29463,-1.13671,-0.0432353,0,0,0
 17:48:57.930,-2.28892,-1.13683,-0.0432744,0,0,0
 17:48:57.930,-2.28323,-1.13638,-0.04343,0,0,0
 17:48:57.931,-2.2776,-1.13593,-0.0435986,0,0,0
 17:48:57.931,-2.27259,-1.13489,-0.0437503,0,0,0
 17:48:57.932,-2.26766,-1.13381,-0.0438212,0,0,0
 17:48:57.932,-2.26222,-1.13326,-0.043908,0,0,0
 17:48:57.933,-2.25682,-1.13336,-0.0439987,0,0,0
 17:48:57.933,-2.25145,-1.13353,-0.0440376,0,0,0
 17:48:57.934,-2.24616,-1.13375,-0.0440101,0,0,0
 17:48:57.934,-2.24036,-1.13396,-0.0440748,0,0,0
 17:48:57.935,-2.23518,-1.13407,-0.0441925,0,0,0
 17:48:57.935,-2.2295,-1.13358,-0.0442659,0,0,0
 17:48:57.936,-2.22448,-1.13431,-0.044241,0,0,0
 17:48:57.936,-2.21892,-1.13447,-0.0443448,0,0,0
 17:48:57.937,-2.21339,-1.13461,-0.0445154,0,0,0
 17:48:57.937,-2.20846,-1.13472,-0.0445807,0,0,0
 17:48:57.938,-2.203,-1.13484,-0.0446333,0,0,0
 17:48:57.938,-2.19755,-1.13495,-0.0447134,0,0,0
 17:48:57.939,-2.19276,-1.13448,-0.0448149,0,0,0
 17:48:57.939,-2.18801,-1.13398,-0.0449163,0,0,0
 17:48:57.940,-2.1839,-1.13408,-0.0449421,0,0,0
 17:48:57.940,-2.17927,-1.13358,-0.0450291,0,0,0
 17:48:57.941,-2.17472,-1.13368,-0.0451593,0,0,0
 17:48:57.941,-2.16966,-1.13379,-0.0451966,0,0,0
 17:48:57.942,-2.16585,-1.13391,-0.045246,0,0,0
 17:48:57.942,-2.16148,-1.13346,-0.0454101,0,0,0
 17:48:57.943,-2.15711,-1.13357,-0.045554,0,0,0
 17:48:57.943,-2.15277,-1.13369,-0.045579,0,0,0
 17:48:57.944,-2.14847,-1.13383,-0.0455776,0,0,0
 17:48:57.944,-2.14425,-1.13345,-0.0456631,0,0,0
 17:48:57.945,-2.14001,-1.13361,-0.0456893,0,0,0
 17:48:57.946,-2.13518,-1.13317,-0.0457516,0,0,0
 17:48:57.946,-2.13098,-1.13329,-0.045818,0,0,0
 17:48:57.946,-2.12691,-1.13344,-0.0458695,0,0,0
 17:48:57.947,-2.12293,-1.13307,-0.0460071,0,0,0
 17:48:57.947,-2.11838,-1.13327,-0.0461773,0,0,0
 17:48:57.948,-2.11381,-1.1334,-0.0463095,0,0,0
 17:48:57.949,-2.10982,-1.1335,-0.0464029,0,0,0
 17:48:57.949,-2.10592,-1.13363,-0.0464952,0,0,0
 17:48:57.949,-2.10146,-1.13315,-0.0465828,0,0,0
 17:48:57.950,-2.09708,-1.13326,-0.0466614,0,0,0
 17:48:57.950,-2.09332,-1.13282,-0.0467741,0,0,0
 17:48:57.951,-2.08961,-1.13301,-0.0468522,0,0,0
 17:48:57.951,-2.0865,-1.13322,-0.0469047,0,0,0
 17:48:57.952,-2.08283,-1.13335,-0.0470101,0,0,0
 17:48:57.952,-2.07859,-1.13286,-0.0471505,0,0,0
 17:48:57.953,-2.075,-1.13238,-0.0472368,0,0,0
 17:48:57.953,-2.07142,-1.13252,-0.0473159,0,0,0
 17:48:57.954,-2.06727,-1.13268,-0.0474488,0,0,0
 17:48:57.954,-2.06375,-1.13223,-0.0475492,0,0,0
 17:48:57.955,-2.06094,-1.13239,-0.0475342,0,0,0
 17:48:57.955,-2.05763,-1.13255,-0.0475972,0,0,0
 17:48:57.956,-2.05431,-1.13214,-0.0477081,0,0,0
 17:48:57.956,-2.05093,-1.13232,-0.0478276,0,0,0
 17:48:57.957,-2.04753,-1.13192,-0.0479425,0,0,0
 17:48:57.957,-2.04422,-1.13155,-0.0480293,0,0,0
 17:48:57.958,-2.04042,-1.13172,-0.0480542,0,0,0
 17:48:57.959,-2.03726,-1.13182,-0.048105,0,0,0
 17:48:57.959,-2.03351,-1.13191,-0.0481965,0,0,0
 17:48:57.959,-2.03033,-1.13202,-0.0482495,0,0,0
 17:48:57.960,-2.02718,-1.13271,-0.0483882,0,0,0
 17:48:57.960,-2.0241,-1.13281,-0.0485733,0,0,0
 17:48:57.961,-2.02104,-1.13286,-0.0486655,0,0,0
 17:48:57.962,-2.01802,-1.13295,-0.0487049,0,0,0
 17:48:57.962,-2.01504,-1.13364,-0.0487237,0,0,0
 17:48:57.962,-2.01146,-1.13378,-0.048791,0,0,0
 17:48:57.963,-2.00792,-1.13334,-0.048905,0,0,0
 17:48:57.963,-2.00503,-1.1328,-0.0490439,0,0,0
 17:48:57.964,-2.00219,-1.13222,-0.0491953,0,0,0
 17:48:57.965,-1.99995,-1.13235,-0.0493133,0,0,0
 17:48:57.965,-1.99708,-1.13252,-0.0493939,0,0,0
 17:48:57.965,-1.9943,-1.13206,-0.0495725,0,0,0
 17:48:57.966,-1.99153,-1.13216,-0.0497312,0,0,0
 17:48:57.966,-1.98878,-1.13228,-0.0498637,0,0,0
 17:48:57.967,-1.98603,-1.13186,-0.0499641,0,0,0
 17:48:57.967,-1.98278,-1.13149,-0.0500765,0,0,0
 17:48:57.968,-1.97961,-1.13166,-0.050207,0,0,0
 17:48:57.968,-1.97707,-1.13184,-0.050311,0,0,0
 17:48:57.969,-1.97453,-1.13201,-0.0503493,0,0,0
 17:48:57.969,-1.97259,-1.13216,-0.0504538,0,0,0
 17:48:57.970,-1.9707,-1.13227,-0.0505967,0,0,0
 17:48:57.970,-1.9683,-1.13241,-0.0506863,0,0,0
 17:48:57.971,-1.96588,-1.13254,-0.0509088,0,0,0
 17:48:57.972,-1.96342,-1.13263,-0.0510803,0,0,0
 17:48:57.972,-1.96094,-1.13272,-0.0511738,0,0,0
 17:48:57.972,-1.9585,-1.13287,-0.0512669,0,0,0
 17:48:57.973,-1.95609,-1.13362,-0.0513007,0,0,0
 17:48:57.973,-1.9543,-1.1338,-0.0513009,0,0,0
 17:48:57.974,-1.95253,-1.13395,-0.0513011,0,0,0
 17:48:57.975,-1.95022,-1.13408,-0.0513936,0,0,0
 17:48:57.975,-1.94796,-1.13426,-0.0515383,0,0,0
 17:48:57.975,-1.94572,-1.13442,-0.0517096,0,0,0
 17:48:57.976,-1.94352,-1.13397,-0.0518335,0,0,0
 17:48:57.976,-1.94133,-1.13346,-0.0519044,0,0,0
 17:48:57.977,-1.93914,-1.1335,-0.0519432,0,0,0
 17:48:57.978,-1.93699,-1.1336,-0.0520482,0,0,0
 17:48:57.978,-1.93427,-1.13378,-0.0521798,0,0,0
 17:48:57.979,-1.93215,-1.13339,-0.0523181,0,0,0
 17:48:57.979,-1.93006,-1.13238,-0.0525148,0,0,0
 17:48:57.979,-1.92736,-1.13193,-0.0526931,0,0,0
 17:48:57.980,-1.92525,-1.13091,-0.0528382,0,0,0
 17:48:57.981,-1.9226,-1.13104,-0.0529437,0,0,0
 17:48:57.981,-1.92057,-1.13055,-0.0531471,0,0,0
 17:48:57.982,-1.91857,-1.13063,-0.0533309,0,0,0
 17:48:57.982,-1.9166,-1.13081,-0.0534089,0,0,0
 17:48:57.982,-1.91407,-1.131,-0.0535136,0,0,0
 17:48:57.983,-1.91215,-1.13114,-0.0536446,0,0,0
 17:48:57.983,-1.91085,-1.13182,-0.0536631,0,0,0
 17:48:57.984,-1.90902,-1.13256,-0.0536147,0,0,0
 17:48:57.985,-1.90717,-1.13333,-0.0536474,0,0,0
 17:48:57.985,-1.90529,-1.1335,-0.0537668,0,0,0
 17:48:57.985,-1.90279,-1.13427,-0.0538292,0,0,0
 17:48:57.986,-1.90093,-1.13448,-0.0538835,0,0,0
 17:48:57.986,-1.8991,-1.13464,-0.0539105,0,0,0
 17:48:57.987,-1.8973,-1.13417,-0.0539168,0,0,0
 17:48:57.988,-1.89613,-1.13367,-0.0540014,0,0,0
 17:48:57.988,-1.89445,-1.13377,-0.0541975,0,0,0
 17:48:57.988,-1.89279,-1.13328,-0.0543337,0,0,0
 17:48:57.989,-1.89051,-1.13336,-0.0543465,0,0,0
 17:48:57.989,-1.88821,-1.13345,-0.0543733,0,0,0
 17:48:57.990,-1.88595,-1.13307,-0.0544191,0,0,0
 17:48:57.991,-1.88425,-1.13266,-0.0545581,0,0,0
 17:48:57.991,-1.88258,-1.13279,-0.0547305,0,0,0
 17:48:57.992,-1.88093,-1.13289,-0.0548365,0,0,0
 17:48:57.992,-1.87931,-1.133,-0.0549296,0,0,0
 17:48:57.992,-1.87717,-1.13315,-0.0550217,0,0,0
 17:48:57.993,-1.87567,-1.13269,-0.0550918,0,0,0
 17:48:57.994,-1.87416,-1.13221,-0.0551622,0,0,0
 17:48:57.994,-1.87266,-1.13184,-0.0552196,0,0,0
 17:48:57.995,-1.87114,-1.13149,-0.055291,0,0,0
 17:48:57.995,-1.86965,-1.13167,-0.0554089,0,0,0
 17:48:57.995,-1.86759,-1.13126,-0.0555328,0,0,0
 17:48:57.996,-1.86608,-1.13084,-0.0556443,0,0,0
 17:48:57.997,-1.8646,-1.13049,-0.0557024,0,0,0
 17:48:57.997,-1.86374,-1.13009,-0.0557599,0,0,0
 17:48:57.998,-1.86291,-1.12966,-0.0558427,0,0,0
 17:48:57.998,-1.86211,-1.12929,-0.0558983,0,0,0
 17:48:57.998,-1.86073,-1.1295,-0.0559491,0,0,0
 17:48:57.999,-1.85924,-1.12965,-0.0560824,0,0,0
 17:48:57.999,-1.85774,-1.12974,-0.0562162,0,0,0
 17:48:58.000,-1.85576,-1.12985,-0.0563216,0,0,0
 17:48:58.001,-1.85438,-1.12995,-0.0563473,0,0,0
 17:48:58.001,-1.85311,-1.13012,-0.0563972,0,0,0
 17:48:58.001,-1.85185,-1.13033,-0.0565797,0,0,0
 17:48:58.002,-1.85048,-1.13108,-0.0567602,0,0,0
 17:48:58.002,-1.8497,-1.13182,-0.0568483,0,0,0
 17:48:58.003,-1.84838,-1.13199,-0.0569413,0,0,0
 17:48:58.004,-1.8465,-1.13271,-0.0570685,0,0,0
 17:48:58.004,-1.84465,-1.13287,-0.0572278,0,0,0
 17:48:58.005,-1.84395,-1.13252,-0.0573525,0,0,0
 17:48:58.005,-1.84326,-1.13271,-0.0574192,0,0,0
 17:48:58.005,-1.84202,-1.13285,-0.0575252,0,0,0
 17:48:58.006,-1.84138,-1.133,-0.0576439,0,0,0
 17:48:58.007,-1.84014,-1.13258,-0.0577686,0,0,0
 17:48:58.007,-1.83834,-1.13158,-0.0578987,0,0,0
 17:48:58.008,-1.83658,-1.13116,-0.0580492,0,0,0
 17:48:58.008,-1.83542,-1.1313,-0.0582204,0,0,0
 17:48:58.008,-1.83371,-1.1314,-0.0584044,0,0,0
 17:48:58.009,-1.83203,-1.13146,-0.0584691,0,0,0
 17:48:58.010,-1.83092,-1.13094,-0.05846,0,0,0
 17:48:58.010,-1.82978,-1.13101,-0.0584466,0,0,0
 17:48:58.011,-1.82865,-1.13108,-0.058526,0,0,0
 17:48:58.011,-1.82751,-1.1306,-0.0586642,0,0,0
 17:48:58.012,-1.8264,-1.1313,-0.0587517,0,0,0
 17:48:58.012,-1.82537,-1.13146,-0.0588695,0,0,0
 17:48:58.013,-1.82438,-1.13103,-0.0589648,0,0,0
 17:48:58.013,-1.82275,-1.13055,-0.059022,0,0,0
 17:48:58.014,-1.82165,-1.13011,-0.0590944,0,0,0
 17:48:58.014,-1.82055,-1.13086,-0.0591834,0,0,0
 17:48:58.014,-1.81942,-1.13097,-0.0592915,0,0,0
 17:48:58.015,-1.81838,-1.13109,-0.0593582,0,0,0
 17:48:58.015,-1.81744,-1.13185,-0.0593518,0,0,0
 17:48:58.016,-1.81597,-1.13263,-0.0593976,0,0,0
 17:48:58.017,-1.81506,-1.13339,-0.0594841,0,0,0
 17:48:58.017,-1.81352,-1.13346,-0.0595641,0,0,0
 17:48:58.018,-1.812,-1.1329,-0.0595954,0,0,0
 17:48:58.018,-1.8105,-1.13299,-0.0595954,0,0,0
 17:48:58.018,-1.80958,-1.13311,-0.059622,0,0,0
 17:48:58.019,-1.80812,-1.13264,-0.0597194,0,0,0
 17:48:58.020,-1.8072,-1.13213,-0.0598045,0,0,0
 17:48:58.020,-1.80689,-1.13218,-0.0598574,0,0,0
 17:48:58.021,-1.80652,-1.13167,-0.0599431,0,0,0
 17:48:58.021,-1.8056,-1.13129,-0.0600287,0,0,0
 17:48:58.021,-1.80474,-1.13029,-0.0600642,0,0,0
 17:48:58.022,-1.80394,-1.12982,-0.0601064,0,0,0
 17:48:58.023,-1.80311,-1.12932,-0.0601892,0,0,0
 17:48:58.023,-1.80222,-1.12942,-0.0602426,0,0,0
 17:48:58.024,-1.80133,-1.12956,-0.0602962,0,0,0
 17:48:58.024,-1.79991,-1.13033,-0.0603707,0,0,0
 17:48:58.025,-1.79849,-1.13103,-0.0604586,0,0,0
 17:48:58.025,-1.7977,-1.13223,-0.0604885,0,0,0
 17:48:58.026,-1.79635,-1.13292,-0.06051,0,0,0
 17:48:58.026,-1.79505,-1.13363,-0.0605837,0,0,0
 17:48:58.027,-1.79375,-1.13309,-0.0607729,0,0,0
 17:48:58.027,-1.79236,-1.13306,-0.06092,0,0,0
 17:48:58.028,-1.79156,-1.13309,-0.0610011,0,0,0
 17:48:58.028,-1.7908,-1.13202,-0.0610777,0,0,0
 17:48:58.029,-1.79009,-1.13101,-0.0612588,0,0,0
 17:48:58.029,-1.78881,-1.12998,-0.0614662,0,0,0
 17:48:58.030,-1.78874,-1.12896,-0.0616587,0,0,0
 17:48:58.030,-1.78814,-1.12969,-0.0617166,0,0,0
 17:48:58.030,-1.78755,-1.1299,-0.0617402,0,0,0
 17:48:58.031,-1.78694,-1.13015,-0.0617909,0,0,0
 17:48:58.031,-1.78629,-1.13031,-0.0619086,0,0,0
 17:48:58.032,-1.78568,-1.13041,-0.0620517,0,0,0
 17:48:58.033,-1.78505,-1.1305,-0.0621558,0,0,0
 17:48:58.033,-1.78382,-1.13009,-0.062226,0,0,0
 17:48:58.034,-1.78256,-1.13025,-0.0623456,0,0,0
 17:48:58.034,-1.78144,-1.13041,-0.0625547,0,0,0
 17:48:58.034,-1.78094,-1.13059,-0.0627626,0,0,0
 17:48:58.035,-1.78039,-1.13021,-0.0628711,0,0,0
 17:48:58.036,-1.77981,-1.13039,-0.0629098,0,0,0
 17:48:58.036,-1.77924,-1.13001,-0.0630186,0,0,0
 17:48:58.037,-1.77806,-1.13019,-0.0630975,0,0,0
 17:48:58.037,-1.77747,-1.13034,-0.0630968,0,0,0
 17:48:58.037,-1.77694,-1.13043,-0.0630943,0,0,0
 17:48:58.038,-1.77644,-1.13109,-0.0630738,0,0,0
 17:48:58.039,-1.77533,-1.1312,-0.0630991,0,0,0
 17:48:58.039,-1.77532,-1.13132,-0.0633373,0,0,0
 17:48:58.040,-1.77534,-1.13143,-0.0635748,0,0,0
 17:48:58.040,-1.77485,-1.13215,-0.0636872,0,0,0
 17:48:58.041,-1.77431,-1.13229,-0.0638058,0,0,0
 17:48:58.041,-1.77318,-1.13246,-0.0638989,0,0,0
 17:48:58.042,-1.77204,-1.13204,-0.0639707,0,0,0
 17:48:58.042,-1.77093,-1.13162,-0.0640679,0,0,0
 17:48:58.043,-1.77044,-1.13118,-0.0642699,0,0,0
 17:48:58.043,-1.76936,-1.13126,-0.064428,0,0,0
 17:48:58.044,-1.76947,-1.13139,-0.0644928,0,0,0
 17:48:58.044,-1.76964,-1.13099,-0.0645342,0,0,0
 17:48:58.045,-1.76921,-1.13001,-0.0645942,0,0,0
 17:48:58.045,-1.76812,-1.12963,-0.0647046,0,0,0
 17:48:58.046,-1.76762,-1.12928,-0.064775,0,0,0
 17:48:58.046,-1.76713,-1.12889,-0.0648584,0,0,0
 17:48:58.047,-1.76605,-1.12793,-0.0649331,0,0,0
 17:48:58.047,-1.76556,-1.12693,-0.0650206,0,0,0
 17:48:58.049,-1.76511,-1.1271,-0.0651375,0,0,0
 17:48:58.049,-1.76468,-1.12725,-0.0652279,0,0,0
 17:48:58.049,-1.76483,-1.128,-0.0653534,0,0,0
 17:48:58.050,-1.76383,-1.12877,-0.0655459,0,0,0
 17:48:58.050,-1.76341,-1.12951,-0.065672,0,0,0
 17:48:58.050,-1.76307,-1.1308,-0.0657128,0,0,0
 17:48:58.050,-1.76213,-1.13097,-0.0658164,0,0,0
 17:48:58.051,-1.76169,-1.13,-0.0659043,0,0,0
 17:48:58.052,-1.76124,-1.12959,-0.0659352,0,0,0
 17:48:58.052,-1.76082,-1.12919,-0.0660315,0,0,0
 17:48:58.053,-1.76102,-1.12877,-0.0661928,0,0,0
 17:48:58.053,-1.76065,-1.12778,-0.0663716,0,0,0
 17:48:58.054,-1.75966,-1.12737,-0.0665073,0,0,0
 17:48:58.054,-1.75925,-1.12691,-0.0666424,0,0,0
 17:48:58.055,-1.7589,-1.12644,-0.0667364,0,0,0
 17:48:58.055,-1.758,-1.1261,-0.0668563,0,0,0
 17:48:58.056,-1.75761,-1.12577,-0.0669516,0,0,0
 17:48:58.056,-1.75718,-1.12543,-0.066995,0,0,0
 17:48:58.057,-1.75674,-1.12503,-0.067078,0,0,0
 17:48:58.057,-1.75636,-1.1252,-0.0671158,0,0,0
 17:48:58.058,-1.75659,-1.12596,-0.0671621,0,0,0
 17:48:58.058,-1.75623,-1.12617,-0.0672787,0,0,0
 17:48:58.059,-1.7559,-1.12701,-0.067338,0,0,0
 17:48:58.059,-1.75557,-1.12731,-0.067402,0,0,0
 17:48:58.060,-1.75468,-1.12758,-0.0675586,0,0,0
 17:48:58.060,-1.75493,-1.12779,-0.0676891,0,0,0
 17:48:58.061,-1.75461,-1.12741,-0.067731,0,0,0
 17:48:58.061,-1.75428,-1.12701,-0.0677336,0,0,0
 17:48:58.062,-1.75398,-1.12667,-0.0677618,0,0,0
 17:48:58.062,-1.75367,-1.12692,-0.0678655,0,0,0
 17:48:58.063,-1.75392,-1.12655,-0.0679468,0,0,0
 17:48:58.063,-1.75365,-1.12621,-0.0679877,0,0,0
 17:48:58.064,-1.75396,-1.12646,-0.0681162,0,0,0
 17:48:58.064,-1.7542,-1.12611,-0.0683037,0,0,0
 17:48:58.065,-1.75388,-1.12571,-0.0683978,0,0,0
 17:48:58.065,-1.75356,-1.12526,-0.0684788,0,0,0
 17:48:58.066,-1.7538,-1.12484,-0.068613,0,0,0
 17:48:58.066,-1.75291,-1.12567,-0.068672,0,0,0
 17:48:58.067,-1.75201,-1.12595,-0.0687757,0,0,0
 17:48:58.067,-1.7517,-1.1262,-0.0688399,0,0,0
 17:48:58.068,-1.75141,-1.12646,-0.0688639,0,0,0
 17:48:58.068,-1.75115,-1.12676,-0.0689274,0,0,0
 17:48:58.069,-1.75089,-1.12644,-0.0689554,0,0,0
 17:48:58.069,-1.75001,-1.12598,-0.0689708,0,0,0
 17:48:58.070,-1.74914,-1.1255,-0.0689726,0,0,0
 17:48:58.070,-1.74888,-1.12513,-0.0690267,0,0,0
 17:48:58.071,-1.7486,-1.1254,-0.0691437,0,0,0
 17:48:58.071,-1.74828,-1.12565,-0.0692618,0,0,0
 17:48:58.072,-1.74794,-1.12588,-0.0693802,0,0,0
 17:48:58.072,-1.74764,-1.12611,-0.0695111,0,0,0
 17:48:58.073,-1.74734,-1.12629,-0.0695495,0,0,0
 17:48:58.073,-1.74766,-1.12644,-0.0695469,0,0,0
 17:48:58.074,-1.74738,-1.12604,-0.0697081,0,0,0
 17:48:58.074,-1.74701,-1.12563,-0.069911,0,0,0
 17:48:58.075,-1.7461,-1.12582,-0.0699637,0,0,0
 17:48:58.075,-1.74585,-1.12601,-0.0700007,0,0,0
 17:48:58.076,-1.74504,-1.12618,-0.0700778,0,0,0
 17:48:58.076,-1.74473,-1.12579,-0.0702139,0,0,0
 17:48:58.077,-1.74445,-1.12544,-0.0703359,0,0,0
 17:48:58.077,-1.74421,-1.12454,-0.0705142,0,0,0
 17:48:58.078,-1.74395,-1.12479,-0.070724,0,0,0
 17:48:58.078,-1.74369,-1.12498,-0.070828,0,0,0
 17:48:58.079,-1.74284,-1.12461,-0.0708573,0,0,0
 17:48:58.079,-1.74206,-1.1243,-0.0709249,0,0,0
 17:48:58.080,-1.74187,-1.124,-0.0709921,0,0,0
 17:48:58.080,-1.74171,-1.12424,-0.0710543,0,0,0
 17:48:58.081,-1.74215,-1.12452,-0.071116,0,0,0
 17:48:58.081,-1.74195,-1.12539,-0.0712016,0,0,0
 17:48:58.082,-1.74112,-1.12681,-0.0713111,0,0,0
 17:48:58.082,-1.74029,-1.12702,-0.0714163,0,0,0
 17:48:58.083,-1.73952,-1.12785,-0.0714765,0,0,0
 17:48:58.083,-1.73876,-1.12806,-0.0715409,0,0,0
 17:48:58.084,-1.73853,-1.12822,-0.0716198,0,0,0
 17:48:58.084,-1.7383,-1.12893,-0.071695,0,0,0
 17:48:58.085,-1.73808,-1.12964,-0.0717702,0,0,0
 17:48:58.085,-1.73844,-1.13032,-0.0718189,0,0,0
 17:48:58.086,-1.73826,-1.13043,-0.071871,0,0,0
 17:48:58.086,-1.73811,-1.13005,-0.0719135,0,0,0
 17:48:58.087,-1.73852,-1.12973,-0.0720358,0,0,0
 17:48:58.087,-1.73893,-1.12939,-0.0722635,0,0,0
 17:48:58.088,-1.73872,-1.1296,-0.0724085,0,0,0
 17:48:58.088,-1.73847,-1.12919,-0.0724927,0,0,0
 17:48:58.089,-1.73823,-1.12871,-0.0725364,0,0,0
 17:48:58.089,-1.73804,-1.12882,-0.0725749,0,0,0
 17:48:58.090,-1.73783,-1.12956,-0.0725969,0,0,0
 17:48:58.090,-1.73819,-1.12974,-0.0726366,0,0,0
 17:48:58.091,-1.73799,-1.13047,-0.0727513,0,0,0
 17:48:58.091,-1.73783,-1.13061,-0.0728692,0,0,0
 17:48:58.092,-1.73702,-1.13076,-0.0729361,0,0,0
 17:48:58.092,-1.73679,-1.13092,-0.0730168,0,0,0
 17:48:58.093,-1.73659,-1.13163,-0.0730264,0,0,0
 17:48:58.093,-1.73637,-1.1317,-0.0730801,0,0,0
 17:48:58.094,-1.73563,-1.13234,-0.0731947,0,0,0
 17:48:58.094,-1.73546,-1.133,-0.0732699,0,0,0
 17:48:58.095,-1.7353,-1.1337,-0.0732927,0,0,0
 17:48:58.095,-1.73516,-1.13328,-0.0733631,0,0,0
 17:48:58.096,-1.735,-1.13346,-0.0734165,0,0,0
 17:48:58.096,-1.7348,-1.13299,-0.073462,0,0,0
 17:48:58.097,-1.73462,-1.13194,-0.0735503,0,0,0
 17:48:58.097,-1.73446,-1.13147,-0.0736737,0,0,0
 17:48:58.098,-1.7338,-1.13102,-0.0737951,0,0,0
 17:48:58.098,-1.73317,-1.13058,-0.0739158,0,0,0
 17:48:58.099,-1.73307,-1.13073,-0.07402,0,0,0
 17:48:58.100,-1.73292,-1.13092,-0.0740993,0,0,0
 17:48:58.100,-1.73338,-1.13169,-0.0741342,0,0,0
 17:48:58.100,-1.73326,-1.13183,-0.07416,0,0,0
 17:48:58.101,-1.7331,-1.13198,-0.0741739,0,0,0
 17:48:58.101,-1.73234,-1.13217,-0.0742411,0,0,0
 17:48:58.102,-1.73215,-1.13227,-0.0743353,0,0,0
 17:48:58.102,-1.73198,-1.13235,-0.0744552,0,0,0
 17:48:58.103,-1.73181,-1.13195,-0.074553,0,0,0
 17:48:58.103,-1.73164,-1.13271,-0.074616,0,0,0
 17:48:58.104,-1.7315,-1.13282,-0.0747751,0,0,0
 17:48:58.104,-1.73202,-1.13294,-0.0749059,0,0,0
 17:48:58.105,-1.73194,-1.13306,-0.074918,0,0,0
 17:48:58.105,-1.73182,-1.1332,-0.0748391,0,0,0
 17:48:58.106,-1.73105,-1.13331,-0.0748543,0,0,0
 17:48:58.106,-1.73033,-1.13341,-0.0750008,0,0,0
 17:48:58.107,-1.72965,-1.13348,-0.0751201,0,0,0
 17:48:58.107,-1.72956,-1.13299,-0.0751769,0,0,0
 17:48:58.108,-1.72946,-1.13309,-0.0752567,0,0,0
 17:48:58.108,-1.7293,-1.13262,-0.0753553,0,0,0
 17:48:58.109,-1.72977,-1.1328,-0.0754091,0,0,0
 17:48:58.109,-1.73029,-1.13239,-0.0754915,0,0,0
 17:48:58.110,-1.73023,-1.13196,-0.0756006,0,0,0
 17:48:58.110,-1.73013,-1.1315,-0.0756835,0,0,0
 17:48:58.111,-1.72943,-1.131,-0.0757669,0,0,0
 17:48:58.111,-1.72934,-1.1311,-0.0758193,0,0,0
 17:48:58.112,-1.72985,-1.13127,-0.0758977,0,0,0
 17:48:58.112,-1.72974,-1.13149,-0.0759116,0,0,0
 17:48:58.113,-1.7296,-1.13235,-0.0759487,0,0,0
 17:48:58.113,-1.73066,-1.13315,-0.0760637,0,0,0
 17:48:58.114,-1.73057,-1.13274,-0.07624,0,0,0
 17:48:58.114,-1.73043,-1.13231,-0.0763379,0,0,0
 17:48:58.115,-1.73035,-1.13249,-0.0763507,0,0,0
 17:48:58.115,-1.73028,-1.13257,-0.0764026,0,0,0
 17:48:58.116,-1.73023,-1.13322,-0.0765027,0,0,0
 17:48:58.116,-1.73015,-1.13274,-0.0765856,0,0,0
 17:48:58.117,-1.73009,-1.13285,-0.076717,0,0,0
 17:48:58.117,-1.73001,-1.13299,-0.0769681,0,0,0
 17:48:58.118,-1.72997,-1.1326,-0.077143,0,0,0
 17:48:58.118,-1.72933,-1.13277,-0.0771157,0,0,0
 17:48:58.119,-1.72927,-1.13295,-0.0770624,0,0,0
 17:48:58.119,-1.72856,-1.13306,-0.0770904,0,0,0
 17:48:58.120,-1.72725,-1.13254,-0.0771494,0,0,0
 17:48:58.120,-1.72665,-1.13147,-0.0772885,0,0,0
 17:48:58.121,-1.7266,-1.12983,-0.0775907,0,0,0
 17:48:58.121,-1.72596,-1.12945,-0.0778322,0,0,0
 17:48:58.122,-1.72594,-1.1291,-0.0779933,0,0,0
 17:48:58.122,-1.72592,-1.12817,-0.0781321,0,0,0
 17:48:58.123,-1.72587,-1.12729,-0.0781786,0,0,0
 17:48:58.123,-1.72588,-1.12702,-0.0782195,0,0,0
 17:48:58.124,-1.72532,-1.12667,-0.07826,0,0,0
 17:48:58.124,-1.7253,-1.12629,-0.0782883,0,0,0
 17:48:58.125,-1.72467,-1.12706,-0.0783883,0,0,0
 17:48:58.125,-1.72465,-1.12725,-0.0785051,0,0,0
 17:48:58.126,-1.72468,-1.12803,-0.0785242,0,0,0
 17:48:58.126,-1.72465,-1.12881,-0.0785322,0,0,0
 17:48:58.127,-1.72459,-1.12959,-0.07866,0,0,0
 17:48:58.127,-1.72512,-1.1298,-0.0787125,0,0,0
 17:48:58.128,-1.72509,-1.13058,-0.0787339,0,0,0
 17:48:58.128,-1.72446,-1.1313,-0.0788091,0,0,0
 17:48:58.129,-1.72384,-1.13139,-0.0789012,0,0,0
 17:48:58.129,-1.72377,-1.13091,-0.0789983,0,0,0
 17:48:58.130,-1.7237,-1.13108,-0.079078,0,0,0
 17:48:58.130,-1.72365,-1.13185,-0.0791666,0,0,0
 17:48:58.131,-1.723,-1.13199,-0.0792731,0,0,0
 17:48:58.132,-1.72235,-1.13215,-0.0793538,0,0,0
 17:48:58.132,-1.7223,-1.13231,-0.0794739,0,0,0
 17:48:58.132,-1.72224,-1.13301,-0.0795632,0,0,0
 17:48:58.133,-1.72224,-1.13197,-0.0796239,0,0,0
 17:48:58.133,-1.72225,-1.13094,-0.07975,0,0,0
 17:48:58.134,-1.72163,-1.12986,-0.0799565,0,0,0
 17:48:58.134,-1.72102,-1.12821,-0.0801928,0,0,0
 17:48:58.135,-1.72098,-1.12718,-0.0803849,0,0,0
 17:48:58.135,-1.7204,-1.12677,-0.0804535,0,0,0
 17:48:58.136,-1.71984,-1.12641,-0.0804821,0,0,0
 17:48:58.136,-1.71986,-1.12717,-0.0805422,0,0,0
 17:48:58.137,-1.71983,-1.12792,-0.0806034,0,0,0
 17:48:58.137,-1.71979,-1.12816,-0.0806297,0,0,0
 17:48:58.138,-1.71917,-1.12899,-0.0806262,0,0,0
 17:48:58.138,-1.71915,-1.1292,-0.0806922,0,0,0
 17:48:58.139,-1.71913,-1.12881,-0.0808149,0,0,0
 17:48:58.139,-1.71911,-1.12843,-0.0808981,0,0,0
 17:48:58.140,-1.71907,-1.12863,-0.0809512,0,0,0
 17:48:58.140,-1.71958,-1.12878,-0.0810316,0,0,0
 17:48:58.141,-1.72018,-1.12895,-0.0811095,0,0,0
 17:48:58.142,-1.72081,-1.12857,-0.0812306,0,0,0
 17:48:58.142,-1.7208,-1.12932,-0.0812915,0,0,0
 17:48:58.142,-1.72074,-1.12999,-0.081354,0,0,0
 17:48:58.143,-1.72065,-1.13006,-0.0815268,0,0,0
 17:48:58.143,-1.72064,-1.13019,-0.0816848,0,0,0
 17:48:58.144,-1.72063,-1.13091,-0.081733,0,0,0
 17:48:58.144,-1.72117,-1.1316,-0.0817551,0,0,0
 17:48:58.145,-1.72178,-1.13228,-0.0818026,0,0,0
 17:48:58.145,-1.72183,-1.13297,-0.0818765,0,0,0
 17:48:58.146,-1.72243,-1.13312,-0.0819151,0,0,0
 17:48:58.146,-1.72242,-1.13322,-0.0820076,0,0,0
 17:48:58.147,-1.7229,-1.1327,-0.0821984,0,0,0
 17:48:58.148,-1.72275,-1.13219,-0.0822715,0,0,0
 17:48:58.148,-1.72211,-1.13172,-0.0822497,0,0,0
 17:48:58.148,-1.72098,-1.13185,-0.0822618,0,0,0
 17:48:58.149,-1.721,-1.13144,-0.0823177,0,0,0
 17:48:58.149,-1.72099,-1.13159,-0.0824097,0,0,0
 17:48:58.150,-1.72099,-1.13167,-0.0825548,0,0,0
 17:48:58.150,-1.72103,-1.13114,-0.0827029,0,0,0
 17:48:58.151,-1.72102,-1.13068,-0.082759,0,0,0
 17:48:58.151,-1.72098,-1.13033,-0.0828428,0,0,0
 17:48:58.151,-1.72094,-1.12999,-0.0829665,0,0,0
 17:48:58.151,-1.72039,-1.12961,-0.0830883,0,0,0
 17:48:58.152,-1.71988,-1.13036,-0.0831479,0,0,0
 17:48:58.152,-1.71931,-1.13116,-0.0831965,0,0,0
 17:48:58.153,-1.7193,-1.1314,-0.083237,0,0,0
 17:48:58.153,-1.71867,-1.13214,-0.0832345,0,0,0
 17:48:58.154,-1.71919,-1.13279,-0.083285,0,0,0
 17:48:58.154,-1.71918,-1.13291,-0.0833124,0,0,0
 17:48:58.155,-1.71979,-1.13306,-0.0832988,0,0,0
 17:48:58.155,-1.71983,-1.13262,-0.083408,0,0,0
 17:48:58.156,-1.72045,-1.13159,-0.0835866,0,0,0
 17:48:58.157,-1.72106,-1.13058,-0.0837388,0,0,0
 17:48:58.157,-1.72111,-1.13017,-0.0838732,0,0,0
 17:48:58.157,-1.72115,-1.13029,-0.0839376,0,0,0
 17:48:58.158,-1.72113,-1.13046,-0.0840296,0,0,0
 17:48:58.158,-1.72107,-1.1307,-0.0841098,0,0,0
 17:48:58.159,-1.7216,-1.1315,-0.0841726,0,0,0
 17:48:58.160,-1.72161,-1.13226,-0.0843136,0,0,0
 17:48:58.160,-1.72165,-1.13246,-0.084458,0,0,0
 17:48:58.160,-1.72166,-1.13323,-0.0844007,0,0,0
 17:48:58.161,-1.72226,-1.13401,-0.0843431,0,0,0
 17:48:58.161,-1.7222,-1.13525,-0.0843627,0,0,0
 17:48:58.162,-1.72216,-1.13645,-0.0844088,0,0,0
 17:48:58.163,-1.7215,-1.13704,-0.0844606,0,0,0
 17:48:58.163,-1.72086,-1.13704,-0.0846084,0,0,0
 17:48:58.164,-1.72086,-1.13706,-0.0847553,0,0,0
 17:48:58.164,-1.72089,-1.13594,-0.0848957,0,0,0
 17:48:58.164,-1.7215,-1.1348,-0.0849432,0,0,0
 17:48:58.165,-1.72211,-1.13372,-0.0850169,0,0,0
 17:48:58.165,-1.72207,-1.1321,-0.0852018,0,0,0
 17:48:58.166,-1.72197,-1.13103,-0.0853832,0,0,0
 17:48:58.166,-1.72192,-1.12881,-0.0856236,0,0,0
 17:48:58.167,-1.72132,-1.12779,-0.0858287,0,0,0
 17:48:58.167,-1.72074,-1.12736,-0.0859763,0,0,0
 17:48:58.168,-1.72076,-1.12693,-0.0860969,0,0,0
 17:48:58.168,-1.72083,-1.12715,-0.0861992,0,0,0
 17:48:58.169,-1.7209,-1.12737,-0.0862225,0,0,0
 17:48:58.169,-1.72094,-1.1287,-0.0861589,0,0,0
 17:48:58.170,-1.72091,-1.13001,-0.0862031,0,0,0
 17:48:58.170,-1.72031,-1.13072,-0.0863044,0,0,0
 17:48:58.171,-1.72027,-1.13139,-0.0863275,0,0,0
 17:48:58.171,-1.71968,-1.13211,-0.0863502,0,0,0
 17:48:58.172,-1.71969,-1.13222,-0.0864289,0,0,0
 17:48:58.173,-1.72034,-1.13173,-0.08655,0,0,0
 17:48:58.173,-1.72035,-1.1313,-0.0866461,0,0,0
 17:48:58.173,-1.72093,-1.13207,-0.0866287,0,0,0
 17:48:58.174,-1.72091,-1.13283,-0.0867311,0,0,0
 17:48:58.174,-1.72146,-1.13245,-0.0868948,0,0,0
 17:48:58.175,-1.72083,-1.13262,-0.0869751,0,0,0
 17:48:58.176,-1.72079,-1.13276,-0.0870817,0,0,0
 17:48:58.176,-1.72019,-1.13292,-0.0871753,0,0,0
 17:48:58.176,-1.7202,-1.13305,-0.0872807,0,0,0
 17:48:58.177,-1.72023,-1.13371,-0.0873685,0,0,0
 17:48:58.177,-1.72026,-1.13385,-0.0874873,0,0,0
 17:48:58.178,-1.72089,-1.13344,-0.0875962,0,0,0
 17:48:58.179,-1.7215,-1.133,-0.0875992,0,0,0
 17:48:58.179,-1.72147,-1.13253,-0.0876167,0,0,0
 17:48:58.180,-1.72089,-1.13205,-0.0876468,0,0,0
 17:48:58.180,-1.72029,-1.13153,-0.0876771,0,0,0
 17:48:58.180,-1.72028,-1.13048,-0.0878304,0,0,0
 17:48:58.181,-1.71966,-1.12947,-0.0880241,0,0,0
 17:48:58.181,-1.71966,-1.12847,-0.0882428,0,0,0
 17:48:58.182,-1.71912,-1.12749,-0.0884734,0,0,0
 17:48:58.183,-1.71916,-1.12654,-0.0886377,0,0,0
 17:48:58.183,-1.71917,-1.12617,-0.0887325,0,0,0
 17:48:58.183,-1.71918,-1.12581,-0.0887612,0,0,0
 17:48:58.184,-1.71858,-1.12545,-0.0888832,0,0,0
 17:48:58.184,-1.71852,-1.12509,-0.0890588,0,0,0
 17:48:58.185,-1.71842,-1.12467,-0.0892084,0,0,0
 17:48:58.186,-1.71841,-1.12542,-0.0892955,0,0,0
 17:48:58.186,-1.71845,-1.12617,-0.0893151,0,0,0
 17:48:58.186,-1.7191,-1.12639,-0.0894309,0,0,0
 17:48:58.187,-1.71915,-1.12665,-0.0895869,0,0,0
 17:48:58.187,-1.71924,-1.12749,-0.0896588,0,0,0
 17:48:58.188,-1.71929,-1.12825,-0.0896521,0,0,0
 17:48:58.189,-1.71985,-1.12895,-0.089674,0,0,0
 17:48:58.189,-1.71979,-1.12907,-0.0897005,0,0,0
 17:48:58.190,-1.72034,-1.12923,-0.0897133,0,0,0
 17:48:58.190,-1.71976,-1.12941,-0.0898185,0,0,0
 17:48:58.190,-1.7198,-1.1302,-0.0898922,0,0,0
 17:48:58.191,-1.71925,-1.13038,-0.0899835,0,0,0
 17:48:58.192,-1.71929,-1.13054,-0.0900481,0,0,0
 17:48:58.192,-1.71879,-1.13015,-0.0901424,0,0,0
 17:48:58.193,-1.71886,-1.13035,-0.0902065,0,0,0
 17:48:58.193,-1.71834,-1.13166,-0.0902496,0,0,0
 17:48:58.193,-1.71839,-1.13236,-0.0902975,0,0,0
 17:48:58.194,-1.71786,-1.13302,-0.0903322,0,0,0
 17:48:58.195,-1.71791,-1.13315,-0.0903978,0,0,0
 17:48:58.195,-1.71735,-1.13388,-0.0904073,0,0,0
 17:48:58.196,-1.7174,-1.13343,-0.0904906,0,0,0
 17:48:58.196,-1.71746,-1.13295,-0.0905603,0,0,0
 17:48:58.196,-1.71805,-1.13191,-0.0906479,0,0,0
 17:48:58.197,-1.7181,-1.13146,-0.0907172,0,0,0
 17:48:58.197,-1.71818,-1.1304,-0.0907896,0,0,0
 17:48:58.198,-1.7182,-1.12991,-0.0907925,0,0,0
 17:48:58.199,-1.71871,-1.12948,-0.0908244,0,0,0
 17:48:58.199,-1.71805,-1.12903,-0.0909093,0,0,0
 17:48:58.200,-1.71806,-1.12921,-0.0910143,0,0,0
 17:48:58.200,-1.71752,-1.1294,-0.0910136,0,0,0
 17:48:58.200,-1.71811,-1.12956,-0.0910528,0,0,0
 17:48:58.201,-1.7181,-1.12974,-0.0911318,0,0,0
 17:48:58.202,-1.71815,-1.12932,-0.0912667,0,0,0
 17:48:58.202,-1.71764,-1.12944,-0.0914098,0,0,0
 17:48:58.203,-1.71771,-1.12959,-0.0915004,0,0,0
 17:48:58.203,-1.71719,-1.12976,-0.0915649,0,0,0
 17:48:58.203,-1.71726,-1.12999,-0.0916298,0,0,0
 17:48:58.204,-1.7167,-1.1308,-0.0916655,0,0,0
 17:48:58.205,-1.71674,-1.13156,-0.0916878,0,0,0
 17:48:58.205,-1.71731,-1.13221,-0.0917109,0,0,0
 17:48:58.206,-1.71731,-1.13289,-0.0917075,0,0,0
 17:48:58.206,-1.71735,-1.13302,-0.091787,0,0,0
 17:48:58.206,-1.71683,-1.1337,-0.0918884,0,0,0
 17:48:58.207,-1.71633,-1.13381,-0.0919143,0,0,0
 17:48:58.208,-1.71633,-1.13386,-0.0920215,0,0,0
 17:48:58.208,-1.7163,-1.1339,-0.0921687,0,0,0
 17:48:58.209,-1.71634,-1.13338,-0.0922522,0,0,0
 17:48:58.209,-1.71643,-1.13285,-0.0923209,0,0,0
 17:48:58.210,-1.7165,-1.1323,-0.0924166,0,0,0
 17:48:58.210,-1.71659,-1.1324,-0.0924814,0,0,0
 17:48:58.211,-1.71661,-1.13194,-0.0925387,0,0,0
 17:48:58.211,-1.71608,-1.13153,-0.092635,0,0,0
 17:48:58.212,-1.71555,-1.13107,-0.0927578,0,0,0
 17:48:58.212,-1.7156,-1.13056,-0.09292,0,0,0
 17:48:58.213,-1.71562,-1.1301,-0.092977,0,0,0
 17:48:58.213,-1.7156,-1.1303,-0.0930706,0,0,0
 17:48:58.213,-1.71562,-1.1299,-0.093273,0,0,0
 17:48:58.214,-1.7157,-1.1295,-0.0933948,0,0,0
 17:48:58.215,-1.71631,-1.12849,-0.093548,0,0,0
 17:48:58.215,-1.71632,-1.12805,-0.0936705,0,0,0
 17:48:58.216,-1.71631,-1.12758,-0.0937402,0,0,0
 17:48:58.216,-1.71632,-1.12714,-0.0937963,0,0,0
 17:48:58.216,-1.71639,-1.12675,-0.0938377,0,0,0
 17:48:58.217,-1.71584,-1.12693,-0.0938891,0,0,0
 17:48:58.218,-1.71586,-1.12711,-0.0939408,0,0,0
 17:48:58.218,-1.71595,-1.12733,-0.0940444,0,0,0
 17:48:58.219,-1.71607,-1.12751,-0.0941733,0,0,0
 17:48:58.219,-1.71615,-1.12764,-0.0942103,0,0,0
 17:48:58.220,-1.71624,-1.12834,-0.0943492,0,0,0
 17:48:58.220,-1.71692,-1.12851,-0.0945713,0,0,0
 17:48:58.221,-1.717,-1.12934,-0.0946182,0,0,0
 17:48:58.221,-1.71705,-1.13014,-0.0947057,0,0,0
 17:48:58.222,-1.71709,-1.13028,-0.0948767,0,0,0
 17:48:58.222,-1.71715,-1.12984,-0.0950117,0,0,0
 17:48:58.223,-1.71717,-1.12999,-0.0951171,0,0,0
 17:48:58.223,-1.71721,-1.13018,-0.0952222,0,0,0
 17:48:58.224,-1.71724,-1.13037,-0.0952744,0,0,0
 17:48:58.224,-1.71728,-1.13058,-0.0953136,0,0,0
 17:48:58.225,-1.71674,-1.13078,-0.0953528,0,0,0
 17:48:58.225,-1.71625,-1.13094,-0.0953512,0,0,0
 17:48:58.226,-1.7158,-1.13105,-0.0953884,0,0,0
 17:48:58.226,-1.71594,-1.13114,-0.0954649,0,0,0
 17:48:58.227,-1.7154,-1.13065,-0.0956273,0,0,0
 17:48:58.227,-1.71542,-1.12963,-0.0958207,0,0,0
 17:48:58.228,-1.71548,-1.12927,-0.0959298,0,0,0
 17:48:58.228,-1.71558,-1.12895,-0.0959979,0,0,0
 17:48:58.229,-1.7156,-1.12854,-0.0960811,0,0,0
 17:48:58.229,-1.71563,-1.1275,-0.0962866,0,0,0
 17:48:58.229,-1.7151,-1.12708,-0.0964211,0,0,0
 17:48:58.230,-1.71516,-1.1267,-0.0965425,0,0,0
 17:48:58.231,-1.71462,-1.12632,-0.0967174,0,0,0
 17:48:58.231,-1.71468,-1.12651,-0.0968609,0,0,0
 17:48:58.232,-1.71414,-1.12609,-0.0969691,0,0,0
 17:48:58.232,-1.71421,-1.12572,-0.0970372,0,0,0
 17:48:58.233,-1.71314,-1.12596,-0.0971276,0,0,0
 17:48:58.233,-1.71383,-1.12621,-0.0972309,0,0,0
 17:48:58.234,-1.71336,-1.12642,-0.097294,0,0,0
 17:48:58.234,-1.71407,-1.12669,-0.0973834,0,0,0
 17:48:58.235,-1.71415,-1.12698,-0.0974477,0,0,0
 17:48:58.235,-1.71475,-1.1267,-0.0975039,0,0,0
 17:48:58.236,-1.71426,-1.12698,-0.0975415,0,0,0
 17:48:58.236,-1.71438,-1.12773,-0.097614,0,0,0
 17:48:58.237,-1.71447,-1.12842,-0.0977798,0,0,0
 17:48:58.237,-1.71512,-1.12915,-0.0979063,0,0,0
 17:48:58.238,-1.7152,-1.1299,-0.0979004,0,0,0
 17:48:58.238,-1.71531,-1.13126,-0.0978639,0,0,0
 17:48:58.239,-1.71539,-1.13255,-0.0978816,0,0,0
 17:48:58.239,-1.71545,-1.13378,-0.0979258,0,0,0
 17:48:58.240,-1.71549,-1.13445,-0.0980017,0,0,0
 17:48:58.240,-1.71548,-1.13514,-0.0980527,0,0,0
 17:48:58.241,-1.71549,-1.13517,-0.0981337,0,0,0
 17:48:58.241,-1.71555,-1.13459,-0.0983229,0,0,0
 17:48:58.242,-1.71623,-1.13352,-0.0985145,0,0,0
 17:48:58.242,-1.71693,-1.13247,-0.0986264,0,0,0
 17:48:58.243,-1.71756,-1.13139,-0.0987787,0,0,0
 17:48:58.243,-1.71757,-1.12975,-0.0989623,0,0,0
 17:48:58.244,-1.71698,-1.12871,-0.0991291,0,0,0
 17:48:58.244,-1.71698,-1.12826,-0.0992252,0,0,0
 17:48:58.245,-1.71695,-1.12721,-0.0993123,0,0,0
 17:48:58.245,-1.71693,-1.12676,-0.0994083,0,0,0
 17:48:58.245,-1.71696,-1.12701,-0.0995922,0,0,0
 17:48:58.246,-1.71706,-1.12731,-0.0997478,0,0,0
 17:48:58.247,-1.71714,-1.1275,-0.0997983,0,0,0
 17:48:58.247,-1.71717,-1.12816,-0.0998848,0,0,0
 17:48:58.248,-1.71722,-1.12823,-0.100068,0,0,0
 17:48:58.248,-1.71782,-1.12777,-0.100203,0,0,0
 17:48:58.248,-1.71726,-1.12679,-0.100302,0,0,0
 17:48:58.249,-1.71669,-1.1258,-0.100428,0,0,0
 17:48:58.250,-1.7167,-1.12483,-0.100553,0,0,0
 17:48:58.250,-1.71671,-1.12503,-0.100657,0,0,0
 17:48:58.251,-1.71673,-1.12523,-0.100775,0,0,0
 17:48:58.251,-2.51739,-1.1253,-0.100808,0,0,0
 17:48:58.252,-2.51001,-1.12666,-0.100832,0,0,0
 17:48:58.252,-2.50271,-1.12801,-0.100856,0,0,0
 17:48:58.253,-2.49491,-1.12935,-0.100882,0,0,0
 17:48:58.253,-2.4877,-1.13008,-0.10096,0,0,0
 17:48:58.254,-2.48054,-1.13133,-0.101068,0,0,0
 17:48:58.254,-2.47345,-1.13256,-0.101177,0,0,0
 17:48:58.255,-2.46587,-1.13379,-0.101286,0,0,0
 17:48:58.255,-2.45845,-1.13386,-0.101429,0,0,0
 17:48:58.256,-2.4511,-1.13393,-0.101573,0,0,0
 17:48:58.256,-2.44383,-1.13401,-0.101716,0,0,0
 17:48:58.257,-2.43605,-1.13408,-0.10186,0,0,0
 17:48:58.257,-2.42829,-1.13414,-0.101939,0,0,0
 17:48:58.258,-2.42061,-1.13421,-0.102018,0,0,0
 17:48:58.258,-2.413,-1.13427,-0.102097,0,0,0
 17:48:58.259,-2.40547,-1.13433,-0.102177,0,0,0
 17:48:58.259,-2.39801,-1.1344,-0.102256,0,0,0
 17:48:58.260,-2.39063,-1.13446,-0.102336,0,0,0
 17:48:58.260,-2.38333,-1.13452,-0.102415,0,0,0
 17:48:58.261,-2.37609,-1.13458,-0.102495,0,0,0
 17:48:58.261,-2.36893,-1.13464,-0.102574,0,0,0
 17:48:58.261,-2.36184,-1.1347,-0.102654,0,0,0
 17:48:58.262,-2.35482,-1.13476,-0.102733,0,0,0
 17:48:58.263,-2.34788,-1.13482,-0.102813,0,0,0
 17:48:58.263,-2.341,-1.13488,-0.102893,0,0,0
 17:48:58.264,-2.33419,-1.13493,-0.102972,0,0,0
 17:48:58.264,-2.32744,-1.13499,-0.103052,0,0,0
 17:48:58.265,-2.32077,-1.13505,-0.103132,0,0,0
 17:48:58.265,-2.31416,-1.1351,-0.103212,0,0,0
 17:48:58.266,-2.30762,-1.13516,-0.103292,0,0,0
 17:48:58.266,-2.30114,-1.13521,-0.103371,0,0,0
 17:48:58.267,-2.29473,-1.13527,-0.103451,0,0,0
 17:48:58.267,-2.28838,-1.13532,-0.103531,0,0,0
 17:48:58.268,-2.2821,-1.13537,-0.103611,0,0,0
 17:48:58.268,-2.27588,-1.13543,-0.103691,0,0,0
 17:48:58.269,-2.26972,-1.13548,-0.103771,0,0,0
 17:48:58.269,-2.26362,-1.13553,-0.103851,0,0,0
 17:48:58.270,-2.25758,-1.13558,-0.103931,0,0,0
 17:48:58.270,-2.25161,-1.13563,-0.104012,0,0,0
 17:48:58.271,-2.24569,-1.13568,-0.104092,0,0,0
 17:48:58.271,-2.23983,-1.13573,-0.104172,0,0,0
 17:48:58.272,-2.23403,-1.13578,-0.104252,0,0,0
 17:48:58.272,-2.22829,-1.13583,-0.104332,0,0,0
 17:48:58.273,-2.22261,-1.13588,-0.104413,0,0,0
 17:48:58.273,-2.21698,-1.13592,-0.104493,0,0,0
 17:48:58.274,-2.21141,-1.13597,-0.104573,0,0,0
 17:48:58.274,-2.2059,-1.13602,-0.104654,0,0,0
 17:48:58.275,-2.20047,-1.13493,-0.104817,0,0,0
 17:48:58.275,-2.1951,-1.13385,-0.10498,0,0,0
 17:48:58.276,-2.18978,-1.13278,-0.105142,0,0,0
 17:48:58.276,-2.18513,-1.13129,-0.105351,0,0,0
 17:48:58.277,-2.18047,-1.13035,-0.105539,0,0,0
 17:48:58.277,-2.17586,-1.12942,-0.105726,0,0,0
 17:48:58.277,-2.17129,-1.1285,-0.105913,0,0,0
 17:48:58.278,-2.16677,-1.12759,-0.1061,0,0,0
 17:48:58.279,-2.16229,-1.12669,-0.106286,0,0,0
 17:48:58.279,-2.1579,-1.12629,-0.106503,0,0,0
 17:48:58.280,-2.15294,-1.12654,-0.106592,0,0,0
 17:48:58.280,-2.14862,-1.12682,-0.106628,0,0,0
 17:48:58.281,-2.14434,-1.12705,-0.106599,0,0,0
 17:48:58.281,-2.14012,-1.12786,-0.106587,0,0,0
 17:48:58.282,-2.13592,-1.12813,-0.106717,0,0,0
 17:48:58.282,-2.13178,-1.12899,-0.106851,0,0,0
 17:48:58.283,-2.1277,-1.12983,-0.106946,0,0,0
 17:48:58.283,-2.12367,-1.13057,-0.106974,0,0,0
 17:48:58.284,-2.11967,-1.13065,-0.107011,0,0,0
 17:48:58.284,-2.11569,-1.13136,-0.107027,0,0,0
 17:48:58.285,-2.11115,-1.13214,-0.107138,0,0,0
 17:48:58.285,-2.10665,-1.13347,-0.107267,0,0,0
 17:48:58.286,-2.1028,-1.13358,-0.107425,0,0,0
 17:48:58.286,-2.09902,-1.13368,-0.107502,0,0,0
 17:48:58.287,-2.09527,-1.13374,-0.10762,0,0,0
 17:48:58.287,-2.09208,-1.13325,-0.107707,0,0,0
 17:48:58.288,-2.0889,-1.13336,-0.10772,0,0,0
 17:48:58.288,-2.08517,-1.13287,-0.107834,0,0,0
 17:48:58.289,-2.08151,-1.13236,-0.108027,0,0,0
 17:48:58.289,-2.07785,-1.13245,-0.108133,0,0,0
 17:48:58.290,-2.07364,-1.13201,-0.108141,0,0,0
 17:48:58.290,-2.07006,-1.13156,-0.108201,0,0,0
 17:48:58.291,-2.06652,-1.13109,-0.108301,0,0,0
 17:48:58.291,-2.06304,-1.13121,-0.108433,0,0,0
 17:48:58.292,-2.05966,-1.13139,-0.108549,0,0,0
 17:48:58.292,-2.05631,-1.13163,-0.108613,0,0,0
 17:48:58.293,-2.05293,-1.13124,-0.108753,0,0,0
 17:48:58.293,-2.04897,-1.13076,-0.108866,0,0,0
 17:48:58.294,-2.04506,-1.12968,-0.108946,0,0,0
 17:48:58.294,-2.0412,-1.12921,-0.109058,0,0,0
 17:48:58.295,-2.03736,-1.12878,-0.109197,0,0,0
 17:48:58.295,-2.0342,-1.12839,-0.10936,0,0,0
 17:48:58.296,-2.03173,-1.1281,-0.109482,0,0,0
 17:48:58.296,-2.0293,-1.12842,-0.109583,0,0,0
 17:48:58.297,-2.02688,-1.1287,-0.109737,0,0,0
 17:48:58.297,-2.02445,-1.1289,-0.109919,0,0,0
 17:48:58.298,-2.02145,-1.12908,-0.110008,0,0,0
 17:48:58.298,-2.01843,-1.1298,-0.110052,0,0,0
 17:48:58.299,-2.0154,-1.12994,-0.110144,0,0,0
 17:48:58.299,-2.01179,-1.12956,-0.110165,0,0,0
 17:48:58.300,-2.00883,-1.12975,-0.110059,0,0,0
 17:48:58.300,-2.00708,-1.12988,-0.110044,0,0,0
 17:48:58.301,-2.0054,-1.13057,-0.110074,0,0,0
 17:48:58.301,-2.00324,-1.13131,-0.110129,0,0,0
 17:48:58.302,-2.00159,-1.13258,-0.110153,0,0,0
 17:48:58.302,-1.99926,-1.13262,-0.110247,0,0,0
 17:48:58.303,-1.99635,-1.13269,-0.110342,0,0,0
 17:48:58.303,-1.99297,-1.13279,-0.110421,0,0,0
 17:48:58.304,-1.98968,-1.13287,-0.110513,0,0,0
 17:48:58.304,-1.9864,-1.13295,-0.110565,0,0,0
 17:48:58.305,-1.98378,-1.13309,-0.110564,0,0,0
 17:48:58.305,-1.98118,-1.13321,-0.110629,0,0,0
 17:48:58.306,-1.97802,-1.13336,-0.110734,0,0,0
 17:48:58.306,-1.97545,-1.13292,-0.110806,0,0,0
 17:48:58.307,-1.97234,-1.13242,-0.110878,0,0,0
 17:48:58.307,-1.96986,-1.13127,-0.111074,0,0,0
 17:48:58.308,-1.96627,-1.13016,-0.111229,0,0,0
 17:48:58.308,-1.96382,-1.12912,-0.111307,0,0,0
 17:48:58.309,-1.9608,-1.12876,-0.111365,0,0,0
 17:48:58.309,-1.9584,-1.12843,-0.111462,0,0,0
 17:48:58.310,-1.95604,-1.1281,-0.111558,0,0,0
 17:48:58.310,-1.95428,-1.12828,-0.111622,0,0,0
 17:48:58.311,-1.95138,-1.12845,-0.111713,0,0,0
 17:48:58.311,-1.94907,-1.12808,-0.111809,0,0,0
 17:48:58.312,-1.94679,-1.1283,-0.111926,0,0,0
 17:48:58.312,-1.94454,-1.12788,-0.112049,0,0,0
 17:48:58.313,-1.94225,-1.12806,-0.112115,0,0,0
 17:48:58.314,-1.93998,-1.12826,-0.112141,0,0,0
 17:48:58.314,-1.9378,-1.12902,-0.112132,0,0,0
 17:48:58.314,-1.93625,-1.12978,-0.112189,0,0,0
 17:48:58.315,-1.93473,-1.13115,-0.112266,0,0,0
 17:48:58.315,-1.93271,-1.13254,-0.11229,0,0,0
 17:48:58.316,-1.93067,-1.13391,-0.112288,0,0,0
 17:48:58.317,-1.92863,-1.13581,-0.112295,0,0,0
 17:48:58.317,-1.92598,-1.13763,-0.112409,0,0,0
 17:48:58.317,-1.92334,-1.13886,-0.112531,0,0,0
 17:48:58.318,-1.9213,-1.14005,-0.112561,0,0,0
 17:48:58.318,-1.91933,-1.14004,-0.112654,0,0,0
 17:48:58.319,-1.91795,-1.13887,-0.112813,0,0,0
 17:48:58.319,-1.91657,-1.13827,-0.112991,0,0,0
 17:48:58.320,-1.91578,-1.13715,-0.113123,0,0,0
 17:48:58.320,-1.91385,-1.13663,-0.113169,0,0,0
 17:48:58.321,-1.91187,-1.13611,-0.113283,0,0,0
 17:48:58.321,-1.90932,-1.13564,-0.113463,0,0,0
 17:48:58.322,-1.90625,-1.13575,-0.113583,0,0,0
 17:48:58.322,-1.90324,-1.1358,-0.113677,0,0,0
 17:48:58.323,-1.90082,-1.13581,-0.113757,0,0,0
 17:48:58.323,-1.89841,-1.13643,-0.113898,0,0,0
 17:48:58.324,-1.89782,-1.13653,-0.114016,0,0,0
 17:48:58.324,-1.89613,-1.13725,-0.114076,0,0,0
 17:48:58.325,-1.89442,-1.13737,-0.114115,0,0,0
 17:48:58.325,-1.89272,-1.13691,-0.114188,0,0,0
 17:48:58.326,-1.89039,-1.13582,-0.114319,0,0,0
 17:48:58.326,-1.88866,-1.13413,-0.114483,0,0,0
 17:48:58.327,-1.88638,-1.13244,-0.114619,0,0,0
 17:48:58.327,-1.88414,-1.13137,-0.114709,0,0,0
 17:48:58.328,-1.88251,-1.13093,-0.114793,0,0,0
 17:48:58.328,-1.88156,-1.13056,-0.114941,0,0,0
 17:48:58.329,-1.88059,-1.13018,-0.115076,0,0,0
 17:48:58.330,-1.87902,-1.13033,-0.115114,0,0,0
 17:48:58.330,-1.87748,-1.13043,-0.115124,0,0,0
 17:48:58.330,-1.87537,-1.13055,-0.115149,0,0,0
 17:48:58.331,-1.87322,-1.13019,-0.11526,0,0,0
 17:48:58.331,-1.87162,-1.13042,-0.115354,0,0,0
 17:48:58.332,-1.87007,-1.13059,-0.115459,0,0,0
 17:48:58.333,-1.86851,-1.13073,-0.115592,0,0,0
 17:48:58.333,-1.86757,-1.132,-0.115687,0,0,0
 17:48:58.333,-1.86725,-1.13267,-0.115839,0,0,0
 17:48:58.334,-1.86641,-1.13338,-0.115964,0,0,0
 17:48:58.334,-1.86497,-1.13409,-0.116051,0,0,0
 17:48:58.335,-1.86293,-1.1342,-0.116131,0,0,0
 17:48:58.335,-1.86148,-1.13432,-0.116158,0,0,0
 17:48:58.336,-1.85944,-1.13382,-0.116178,0,0,0
 17:48:58.336,-1.85801,-1.13324,-0.11621,0,0,0
 17:48:58.337,-1.85662,-1.13332,-0.116303,0,0,0
 17:48:58.337,-1.85526,-1.13294,-0.116454,0,0,0
 17:48:58.338,-1.85395,-1.13255,-0.116577,0,0,0
 17:48:58.338,-1.85267,-1.13215,-0.116793,0,0,0
 17:48:58.339,-1.85079,-1.13115,-0.117107,0,0,0
 17:48:58.340,-1.85,-1.13066,-0.117232,0,0,0
 17:48:58.340,-1.84806,-1.13012,-0.117304,0,0,0
 17:48:58.340,-1.84622,-1.12966,-0.117466,0,0,0
 17:48:58.341,-1.8438,-1.12918,-0.117642,0,0,0
 17:48:58.341,-1.84197,-1.12813,-0.117771,0,0,0
 17:48:58.344,-1.84021,-1.12767,-0.1178,0,0,0
 17:48:58.344,-1.83849,-1.12666,-0.117939,0,0,0
 17:48:58.344,-1.83737,-1.12625,-0.118139,0,0,0
 17:48:58.344,-1.83685,-1.12649,-0.118307,0,0,0
 17:48:58.346,-1.83572,-1.12672,-0.11841,0,0,0
 17:48:58.346,-1.8345,-1.12807,-0.118452,0,0,0
 17:48:58.347,-1.83386,-1.12938,-0.118455,0,0,0
 17:48:58.347,-1.83329,-1.1307,-0.118471,0,0,0
 17:48:58.348,-1.83273,-1.13205,-0.118579,0,0,0
 17:48:58.348,-1.83216,-1.13278,-0.118653,0,0,0
 17:48:58.349,-1.83159,-1.1329,-0.118654,0,0,0
 17:48:58.349,-1.83056,-1.13355,-0.118646,0,0,0
 17:48:58.350,-1.83008,-1.13421,-0.118692,0,0,0
 17:48:58.350,-1.82839,-1.13433,-0.118878,0,0,0
 17:48:58.350,-1.82786,-1.13448,-0.119064,0,0,0
 17:48:58.351,-1.82678,-1.13461,-0.119184,0,0,0
 17:48:58.351,-1.82572,-1.13415,-0.119282,0,0,0
 17:48:58.352,-1.82528,-1.13426,-0.119334,0,0,0
 17:48:58.353,-1.82426,-1.13375,-0.11947,0,0,0
 17:48:58.353,-1.8226,-1.13321,-0.119635,0,0,0
 17:48:58.353,-1.8215,-1.1321,-0.119793,0,0,0
 17:48:58.354,-1.81984,-1.13161,-0.119878,0,0,0
 17:48:58.354,-1.8188,-1.1306,-0.119994,0,0,0
 17:48:58.355,-1.81724,-1.12955,-0.120109,0,0,0
 17:48:58.356,-1.8157,-1.12851,-0.120197,0,0,0
 17:48:58.356,-1.81418,-1.12752,-0.120298,0,0,0
 17:48:58.357,-1.81322,-1.12715,-0.12042,0,0,0
 17:48:58.357,-1.8123,-1.12682,-0.120516,0,0,0
 17:48:58.357,-1.8108,-1.12701,-0.120554,0,0,0
 17:48:58.358,-1.80983,-1.12717,-0.120633,0,0,0
 17:48:58.359,-1.80888,-1.12732,-0.120752,0,0,0
 17:48:58.359,-1.80862,-1.12686,-0.120899,0,0,0
 17:48:58.359,-1.80785,-1.12581,-0.121009,0,0,0
 17:48:58.360,-1.8076,-1.12485,-0.121094,0,0,0
 17:48:58.360,-1.80673,-1.12452,-0.121216,0,0,0
 17:48:58.361,-1.80592,-1.12418,-0.121362,0,0,0
 17:48:58.362,-1.80569,-1.12382,-0.121481,0,0,0
 17:48:58.362,-1.80488,-1.12347,-0.121562,0,0,0
 17:48:58.363,-1.80399,-1.12317,-0.12171,0,0,0
 17:48:58.363,-1.8032,-1.12353,-0.121772,0,0,0
 17:48:58.363,-1.80179,-1.12434,-0.121685,0,0,0
 17:48:58.364,-1.80039,-1.12517,-0.121678,0,0,0
 17:48:58.365,-1.80016,-1.12598,-0.121764,0,0,0
 17:48:58.365,-1.79937,-1.12617,-0.121841,0,0,0
 17:48:58.366,-1.7992,-1.12633,-0.121864,0,0,0
 17:48:58.366,-1.79847,-1.1265,-0.121926,0,0,0
 17:48:58.366,-1.79773,-1.12675,-0.122003,0,0,0
 17:48:58.367,-1.7975,-1.12696,-0.122107,0,0,0
 17:48:58.367,-1.79606,-1.12712,-0.122227,0,0,0
 17:48:58.368,-1.79472,-1.12676,-0.122323,0,0,0
 17:48:58.369,-1.79401,-1.12695,-0.122412,0,0,0
 17:48:58.369,-1.7927,-1.12654,-0.122521,0,0,0
 17:48:58.369,-1.79196,-1.12672,-0.122532,0,0,0
 17:48:58.370,-1.79128,-1.12639,-0.122614,0,0,0
 17:48:58.370,-1.79007,-1.12607,-0.122707,0,0,0
 17:48:58.371,-1.7894,-1.12627,-0.122797,0,0,0
 17:48:58.372,-1.78811,-1.12585,-0.122932,0,0,0
 17:48:58.372,-1.78686,-1.12487,-0.123019,0,0,0
 17:48:58.373,-1.78558,-1.12443,-0.123114,0,0,0
 17:48:58.373,-1.78491,-1.12348,-0.12324,0,0,0
 17:48:58.373,-1.78429,-1.12314,-0.123307,0,0,0
 17:48:58.374,-1.78371,-1.12278,-0.123347,0,0,0
 17:48:58.375,-1.78311,-1.12237,-0.123453,0,0,0
 17:48:58.375,-1.78259,-1.12204,-0.123651,0,0,0
 17:48:58.375,-1.78206,-1.12232,-0.123791,0,0,0
 17:48:58.376,-1.78084,-1.12197,-0.123872,0,0,0
 17:48:58.376,-1.77965,-1.12164,-0.123927,0,0,0
 17:48:58.377,-1.77909,-1.12074,-0.124038,0,0,0
 17:48:58.378,-1.77855,-1.11988,-0.124161,0,0,0
 17:48:58.378,-1.77801,-1.11966,-0.124227,0,0,0
 17:48:58.379,-1.77753,-1.11951,-0.124292,0,0,0
 17:48:58.379,-1.77769,-1.12055,-0.124373,0,0,0
 17:48:58.379,-1.77719,-1.12205,-0.124358,0,0,0
 17:48:58.380,-1.77669,-1.12352,-0.124345,0,0,0
 17:48:58.381,-1.77617,-1.12497,-0.124358,0,0,0
 17:48:58.381,-1.77506,-1.12579,-0.124324,0,0,0
 17:48:58.382,-1.77397,-1.12656,-0.12437,0,0,0
 17:48:58.382,-1.77347,-1.12677,-0.124459,0,0,0
 17:48:58.383,-1.77299,-1.12697,-0.124496,0,0,0
 17:48:58.383,-1.77254,-1.12664,-0.12451,0,0,0
 17:48:58.383,-1.77207,-1.12626,-0.124578,0,0,0
 17:48:58.384,-1.7716,-1.12583,-0.124672,0,0,0
 17:48:58.385,-1.77055,-1.12545,-0.124714,0,0,0
 17:48:58.385,-1.76952,-1.12454,-0.124759,0,0,0
 17:48:58.386,-1.7685,-1.12368,-0.124871,0,0,0
 17:48:58.386,-1.76748,-1.12224,-0.125026,0,0,0
 17:48:58.386,-1.76641,-1.12132,-0.125152,0,0,0
 17:48:58.387,-1.76596,-1.12045,-0.12525,0,0,0
 17:48:58.388,-1.7655,-1.1202,-0.125317,0,0,0
 17:48:58.388,-1.76508,-1.11989,-0.12537,0,0,0
 17:48:58.389,-1.76473,-1.11955,-0.125487,0,0,0
 17:48:58.389,-1.7644,-1.11928,-0.125577,0,0,0
 17:48:58.389,-1.76401,-1.11845,-0.125594,0,0,0
 17:48:58.390,-1.76361,-1.11825,-0.125607,0,0,0
 17:48:58.391,-1.7626,-1.11804,-0.125674,0,0,0
 17:48:58.391,-1.76159,-1.11775,-0.12582,0,0,0
 17:48:58.392,-1.76061,-1.11802,-0.125921,0,0,0
 17:48:58.392,-1.75965,-1.11888,-0.125898,0,0,0
 17:48:58.392,-1.75935,-1.11976,-0.125927,0,0,0
 17:48:58.393,-1.75906,-1.12064,-0.125983,0,0,0
 17:48:58.394,-1.75934,-1.12156,-0.126039,0,0,0
 17:48:58.394,-1.75899,-1.12187,-0.126101,0,0,0
 17:48:58.395,-1.75805,-1.1215,-0.1263,0,0,0
 17:48:58.395,-1.75701,-1.12104,-0.126488,0,0,0
 17:48:58.396,-1.75591,-1.12002,-0.126601,0,0,0
 17:48:58.396,-1.75548,-1.11911,-0.126687,0,0,0
 17:48:58.397,-1.75515,-1.11827,-0.126744,0,0,0
 17:48:58.397,-1.75608,-1.11807,-0.126715,0,0,0
 17:48:58.398,-1.757,-1.11791,-0.126699,0,0,0
 17:48:58.398,-1.75732,-1.1189,-0.126701,0,0,0
 17:48:58.399,-1.75636,-1.11983,-0.126719,0,0,0
 17:48:58.399,-1.75479,-1.12069,-0.126779,0,0,0
 17:48:58.399,-1.75313,-1.12146,-0.126841,0,0,0
 17:48:58.400,-1.75207,-1.12221,-0.126864,0,0,0
 17:48:58.401,-1.7517,-1.12243,-0.126967,0,0,0
 17:48:58.401,-1.75327,-1.12212,-0.12715,0,0,0
 17:48:58.402,-1.75492,-1.12191,-0.127304,0,0,0
 17:48:58.402,-1.75591,-1.12239,-0.12739,0,0,0
 17:48:58.402,-1.75563,-1.12228,-0.127417,0,0,0
 17:48:58.403,-1.7541,-1.12259,-0.127468,0,0,0
 17:48:58.404,-1.75245,-1.12269,-0.127575,0,0,0
 17:48:58.404,-1.75076,-1.12214,-0.127687,0,0,0
 17:48:58.405,-1.74973,-1.12174,-0.127744,0,0,0
 17:48:58.405,-1.74997,-1.12201,-0.127755,0,0,0
 17:48:58.405,-1.75032,-1.1223,-0.127736,0,0,0
 17:48:58.406,-1.75072,-1.12259,-0.127757,0,0,0
 17:48:58.407,-1.75112,-1.12404,-0.127795,0,0,0
 17:48:58.407,-1.75089,-1.12492,-0.127813,0,0,0
 17:48:58.408,-1.74998,-1.12457,-0.127895,0,0,0
 17:48:58.408,-1.74906,-1.12358,-0.128061,0,0,0
 17:48:58.408,-1.74752,-1.12315,-0.128211,0,0,0
 17:48:58.409,-1.74599,-1.12218,-0.128377,0,0,0
 17:48:58.410,-1.74569,-1.1207,-0.128494,0,0,0
 17:48:58.410,-1.7455,-1.11988,-0.128577,0,0,0
 17:48:58.411,-1.74594,-1.11964,-0.12868,0,0,0
 17:48:58.411,-1.74634,-1.11997,-0.128741,0,0,0
 17:48:58.412,-1.7467,-1.12035,-0.128829,0,0,0
 17:48:58.412,-1.74647,-1.12073,-0.128944,0,0,0
 17:48:58.413,-1.74564,-1.12102,-0.129033,0,0,0
 17:48:58.413,-1.7448,-1.12124,-0.129096,0,0,0
 17:48:58.414,-1.74339,-1.12146,-0.129106,0,0,0
 17:48:58.414,-1.74314,-1.12227,-0.129099,0,0,0
 17:48:58.415,-1.74292,-1.12311,-0.129132,0,0,0
 17:48:58.415,-1.74272,-1.12399,-0.12919,0,0,0
 17:48:58.415,-1.7431,-1.12425,-0.129293,0,0,0
 17:48:58.416,-1.74358,-1.12509,-0.129362,0,0,0
 17:48:58.417,-1.74345,-1.12528,-0.129357,0,0,0
 17:48:58.417,-1.74385,-1.12429,-0.129441,0,0,0
 17:48:58.418,-1.74359,-1.12384,-0.129575,0,0,0
 17:48:58.418,-1.74274,-1.12285,-0.129701,0,0,0
 17:48:58.419,-1.74247,-1.12196,-0.129866,0,0,0
 17:48:58.419,-1.74225,-1.12167,-0.129999,0,0,0
 17:48:58.420,-1.7421,-1.122,-0.13006,0,0,0
 17:48:58.420,-1.74252,-1.12173,-0.130126,0,0,0
 17:48:58.421,-1.7424,-1.1226,-0.130182,0,0,0
 17:48:58.421,-1.74163,-1.12296,-0.130272,0,0,0
 17:48:58.422,-1.7414,-1.12386,-0.130266,0,0,0
 17:48:58.422,-1.74061,-1.12415,-0.130342,0,0,0
 17:48:58.423,-1.73982,-1.12437,-0.130393,0,0,0
 17:48:58.423,-1.73959,-1.12508,-0.130427,0,0,0
 17:48:58.424,-1.73882,-1.12524,-0.13053,0,0,0
 17:48:58.424,-1.73864,-1.1249,-0.130584,0,0,0
 17:48:58.425,-1.73848,-1.12402,-0.130616,0,0,0
 17:48:58.425,-1.73775,-1.12254,-0.130811,0,0,0
 17:48:58.426,-1.73761,-1.12161,-0.131014,0,0,0
 17:48:58.426,-1.73688,-1.12069,-0.131177,0,0,0
 17:48:58.427,-1.73671,-1.11981,-0.131248,0,0,0
 17:48:58.427,-1.73648,-1.11896,-0.131254,0,0,0
 17:48:58.428,-1.73565,-1.11871,-0.131296,0,0,0
 17:48:58.428,-1.73545,-1.11847,-0.131403,0,0,0
 17:48:58.429,-1.73525,-1.11823,-0.131497,0,0,0
 17:48:58.429,-1.73502,-1.11853,-0.131601,0,0,0
 17:48:58.430,-1.73483,-1.1194,-0.131713,0,0,0
 17:48:58.430,-1.73469,-1.11971,-0.131762,0,0,0
 17:48:58.431,-1.73457,-1.1206,-0.131833,0,0,0
 17:48:58.431,-1.73434,-1.12089,-0.131898,0,0,0
 17:48:58.432,-1.7347,-1.12291,-0.131897,0,0,0
 17:48:58.432,-1.73394,-1.12492,-0.131923,0,0,0
 17:48:58.433,-1.73372,-1.12637,-0.131954,0,0,0
 17:48:58.433,-1.73346,-1.12832,-0.13197,0,0,0
 17:48:58.434,-1.73322,-1.12962,-0.131924,0,0,0
 17:48:58.434,-1.733,-1.13029,-0.131894,0,0,0
 17:48:58.435,-1.73282,-1.13092,-0.13201,0,0,0
 17:48:58.435,-1.73262,-1.13098,-0.132196,0,0,0
 17:48:58.436,-1.73247,-1.13049,-0.132359,0,0,0
 17:48:58.436,-1.73297,-1.13001,-0.13248,0,0,0
 17:48:58.437,-1.73286,-1.12896,-0.132605,0,0,0
 17:48:58.437,-1.73268,-1.12736,-0.132763,0,0,0
 17:48:58.438,-1.73191,-1.12638,-0.132824,0,0,0
 17:48:58.438,-1.73116,-1.12541,-0.132911,0,0,0
 17:48:58.439,-1.73103,-1.12498,-0.133072,0,0,0
 17:48:58.439,-1.73089,-1.12454,-0.133207,0,0,0
 17:48:58.440,-1.73079,-1.12418,-0.133301,0,0,0
 17:48:58.440,-1.7307,-1.12384,-0.133421,0,0,0
 17:48:58.441,-1.73062,-1.12406,-0.133537,0,0,0
 17:48:58.441,-1.73046,-1.12424,-0.133576,0,0,0
 17:48:58.442,-1.73039,-1.12445,-0.133586,0,0,0
 17:48:58.442,-1.73031,-1.12414,-0.13356,0,0,0
 17:48:58.443,-1.7302,-1.12383,-0.133549,0,0,0
 17:48:58.443,-1.73009,-1.12354,-0.133604,0,0,0
 17:48:58.444,-1.73,-1.12322,-0.133711,0,0,0
 17:48:58.444,-1.72995,-1.12344,-0.133812,0,0,0
 17:48:58.445,-1.72931,-1.12365,-0.133915,0,0,0
 17:48:58.445,-1.72918,-1.12389,-0.134006,0,0,0
 17:48:58.446,-1.72899,-1.12414,-0.134006,0,0,0
 17:48:58.446,-1.72824,-1.12432,-0.134111,0,0,0
 17:48:58.447,-1.72814,-1.12444,-0.134308,0,0,0
 17:48:58.447,-1.72755,-1.12458,-0.134396,0,0,0
 17:48:58.448,-1.72693,-1.12536,-0.134415,0,0,0
 17:48:58.448,-1.72625,-1.12616,-0.134463,0,0,0
 17:48:58.449,-1.72615,-1.12698,-0.134564,0,0,0
 17:48:58.449,-1.72602,-1.12778,-0.134679,0,0,0
 17:48:58.450,-1.72594,-1.12858,-0.134781,0,0,0
 17:48:58.450,-1.72647,-1.12877,-0.134885,0,0,0
 17:48:58.451,-1.72644,-1.12889,-0.135028,0,0,0
 17:48:58.451,-1.72697,-1.12841,-0.135123,0,0,0
 17:48:58.452,-1.72743,-1.12848,-0.135176,0,0,0
 17:48:58.452,-1.72735,-1.12804,-0.135258,0,0,0
 17:48:58.453,-1.72728,-1.12712,-0.135344,0,0,0
 17:48:58.453,-1.72665,-1.12681,-0.135412,0,0,0
 17:48:58.454,-1.72655,-1.12646,-0.135521,0,0,0
 17:48:58.454,-1.72586,-1.12664,-0.135613,0,0,0
 17:48:58.455,-1.72521,-1.12681,-0.135678,0,0,0
 17:48:58.455,-1.72516,-1.12701,-0.135729,0,0,0
 17:48:58.456,-1.72514,-1.12721,-0.135846,0,0,0
 17:48:58.456,-1.72455,-1.1279,-0.135971,0,0,0
 17:48:58.457,-1.72454,-1.12803,-0.136101,0,0,0
 17:48:58.457,-1.72394,-1.12818,-0.136165,0,0,0
 17:48:58.458,-1.72336,-1.12718,-0.136171,0,0,0
 17:48:58.458,-1.72272,-1.12618,-0.136232,0,0,0
 17:48:58.459,-1.72256,-1.12519,-0.136347,0,0,0
 17:48:58.459,-1.72304,-1.12362,-0.136478,0,0,0
 17:48:58.460,-1.72312,-1.12268,-0.136587,0,0,0
 17:48:58.460,-1.72323,-1.12176,-0.136681,0,0,0
 17:48:58.461,-1.72381,-1.1208,-0.136764,0,0,0
 17:48:58.461,-1.72379,-1.12045,-0.13691,0,0,0
 17:48:58.462,-1.72374,-1.12069,-0.137132,0,0,0
 17:48:58.462,-1.7237,-1.12097,-0.137234,0,0,0
 17:48:58.463,-1.72433,-1.12249,-0.137247,0,0,0
 17:48:58.463,-1.72492,-1.12341,-0.137266,0,0,0
 17:48:58.464,-1.72486,-1.1237,-0.13725,0,0,0
 17:48:58.464,-1.7242,-1.12506,-0.137227,0,0,0
 17:48:58.465,-1.72417,-1.1264,-0.137229,0,0,0
 17:48:58.465,-1.72416,-1.12714,-0.137395,0,0,0
 17:48:58.466,-1.72352,-1.12782,-0.137561,0,0,0
 17:48:58.466,-1.72289,-1.12851,-0.137609,0,0,0
 17:48:58.467,-1.72284,-1.12919,-0.137591,0,0,0
 17:48:58.467,-1.72281,-1.12988,-0.137612,0,0,0
 17:48:58.468,-1.72282,-1.13063,-0.137686,0,0,0
 17:48:58.468,-1.7222,-1.13079,-0.137726,0,0,0
 17:48:58.469,-1.72157,-1.13035,-0.137743,0,0,0
 17:48:58.469,-1.72089,-1.1293,-0.137859,0,0,0
 17:48:58.470,-1.72029,-1.12826,-0.137958,0,0,0
 17:48:58.470,-1.71978,-1.12666,-0.137994,0,0,0
 17:48:58.471,-1.71931,-1.1251,-0.138041,0,0,0
 17:48:58.471,-1.71881,-1.12356,-0.138182,0,0,0
 17:48:58.472,-1.71827,-1.1226,-0.138359,0,0,0
 17:48:58.472,-1.71779,-1.12169,-0.138521,0,0,0
 17:48:58.473,-1.71734,-1.12136,-0.138651,0,0,0
 17:48:58.473,-1.71679,-1.12102,-0.138771,0,0,0
 17:48:58.474,-1.71624,-1.12073,-0.138865,0,0,0
 17:48:58.474,-1.71628,-1.12047,-0.138985,0,0,0
 17:48:58.475,-1.71634,-1.12075,-0.139073,0,0,0
 17:48:58.475,-1.71695,-1.12036,-0.139179,0,0,0
 17:48:58.476,-1.71638,-1.11994,-0.139233,0,0,0
 17:48:58.476,-1.71643,-1.11961,-0.139299,0,0,0
 17:48:58.477,-1.71652,-1.11934,-0.139364,0,0,0
 17:48:58.477,-1.71719,-1.11901,-0.139455,0,0,0
 17:48:58.478,-1.71728,-1.11924,-0.139595,0,0,0
 17:48:58.478,-1.71725,-1.11999,-0.139694,0,0,0
 17:48:58.479,-1.71719,-1.12019,-0.139746,0,0,0
 17:48:58.479,-1.71719,-1.12049,-0.139769,0,0,0
 17:48:58.480,-1.71778,-1.12141,-0.139815,0,0,0
 17:48:58.480,-1.71781,-1.12347,-0.13984,0,0,0
 17:48:58.481,-1.71837,-1.12489,-0.139843,0,0,0
 17:48:58.481,-1.7184,-1.1257,-0.139903,0,0,0
 17:48:58.482,-1.71958,-1.12646,-0.140056,0,0,0
 17:48:58.482,-1.72019,-1.12778,-0.140138,0,0,0
 17:48:58.483,-1.72018,-1.12907,-0.140181,0,0,0
 17:48:58.483,-1.72015,-1.1292,-0.140313,0,0,0
 17:48:58.484,-1.71951,-1.12935,-0.14042,0,0,0
 17:48:58.484,-1.71944,-1.13007,-0.140404,0,0,0
 17:48:58.485,-1.71939,-1.13023,-0.140404,0,0,0
 17:48:58.485,-1.71933,-1.13044,-0.140459,0,0,0
 17:48:58.486,-1.71871,-1.13058,-0.140579,0,0,0
 17:48:58.486,-1.71871,-1.13009,-0.140727,0,0,0
 17:48:58.487,-1.71871,-1.12963,-0.14081,0,0,0
 17:48:58.487,-1.71809,-1.12919,-0.140947,0,0,0
 17:48:58.488,-1.71744,-1.12872,-0.141071,0,0,0
 17:48:58.488,-1.71684,-1.12766,-0.141211,0,0,0
 17:48:58.489,-1.7163,-1.12718,-0.141346,0,0,0
 17:48:58.489,-1.71518,-1.12674,-0.141467,0,0,0
 17:48:58.490,-1.7152,-1.12576,-0.14158,0,0,0
 17:48:58.490,-1.7153,-1.12591,-0.141709,0,0,0
 17:48:58.491,-1.71534,-1.12542,-0.141817,0,0,0
 17:48:58.491,-1.71477,-1.12502,-0.141873,0,0,0
 17:48:58.492,-1.71427,-1.12528,-0.142029,0,0,0
 17:48:58.492,-1.71376,-1.12547,-0.142172,0,0,0
 17:48:58.493,-1.71384,-1.1256,-0.142183,0,0,0
 17:48:58.493,-1.7133,-1.12578,-0.142274,0,0,0
 17:48:58.494,-1.7139,-1.126,-0.142352,0,0,0
 17:48:58.494,-1.71454,-1.12681,-0.142399,0,0,0
 17:48:58.495,-1.7152,-1.12761,-0.142433,0,0,0
 17:48:58.495,-1.71584,-1.12779,-0.142484,0,0,0
 17:48:58.496,-1.71647,-1.12905,-0.142487,0,0,0
 17:48:58.496,-1.71653,-1.13027,-0.14253,0,0,0
 17:48:58.497,-1.71653,-1.13087,-0.142645,0,0,0
 17:48:58.497,-1.71652,-1.13141,-0.142668,0,0,0
 17:48:58.498,-1.71655,-1.13257,-0.142607,0,0,0
 17:48:58.498,-1.7166,-1.13324,-0.142616,0,0,0
 17:48:58.499,-1.7167,-1.13331,-0.142786,0,0,0
 17:48:58.499,-1.71686,-1.13391,-0.142938,0,0,0
 17:48:58.500,-1.71697,-1.13403,-0.143015,0,0,0
 17:48:58.500,-1.71694,-1.13419,-0.143071,0,0,0
 17:48:58.501,-1.7169,-1.13375,-0.143143,0,0,0
 17:48:58.501,-1.71637,-1.13272,-0.14327,0,0,0
 17:48:58.502,-1.71588,-1.13225,-0.143445,0,0,0
 17:48:58.502,-1.71478,-1.13116,-0.143625,0,0,0
 17:48:58.503,-1.71479,-1.13005,-0.143739,0,0,0
 17:48:58.503,-1.71428,-1.12903,-0.143865,0,0,0
 17:48:58.504,-1.71436,-1.12865,-0.144039,0,0,0
 17:48:58.504,-1.71385,-1.12829,-0.144267,0,0,0
 17:48:58.505,-1.71333,-1.12791,-0.144416,0,0,0
 17:48:58.505,-1.71285,-1.1275,-0.144537,0,0,0
 17:48:58.506,-1.71237,-1.12708,-0.144698,0,0,0
 17:48:58.506,-1.71192,-1.12666,-0.144871,0,0,0
 17:48:58.507,-1.71146,-1.12621,-0.144991,0,0,0
 17:48:58.507,-1.71098,-1.12579,-0.145139,0,0,0
 17:48:58.508,-1.71102,-1.12544,-0.145288,0,0,0
 17:48:58.508,-1.71108,-1.12566,-0.145393,0,0,0
 17:48:58.509,-1.71175,-1.12531,-0.145448,0,0,0
 17:48:58.509,-1.71243,-1.12556,-0.145459,0,0,0
 17:48:58.510,-1.71307,-1.12635,-0.145506,0,0,0
 17:48:58.510,-1.71318,-1.12654,-0.145596,0,0,0
 17:48:58.511,-1.71329,-1.12675,-0.145673,0,0,0
 17:48:58.511,-1.71398,-1.12695,-0.145762,0,0,0
 17:48:58.512,-1.71406,-1.12715,-0.145866,0,0,0
 17:48:58.512,-1.71412,-1.12785,-0.145967,0,0,0
 17:48:58.513,-1.71426,-1.12853,-0.146171,0,0,0
 17:48:58.513,-1.71498,-1.12922,-0.146283,0,0,0
 17:48:58.514,-1.71508,-1.12938,-0.146281,0,0,0
 17:48:58.514,-1.71514,-1.13008,-0.146276,0,0,0
 17:48:58.515,-1.71457,-1.13073,-0.146325,0,0,0
 17:48:58.516,-1.71402,-1.13084,-0.146418,0,0,0
 17:48:58.516,-1.7141,-1.13102,-0.146523,0,0,0
 17:48:58.516,-1.71358,-1.13119,-0.146629,0,0,0
 17:48:58.517,-1.71369,-1.13073,-0.146764,0,0,0
 17:48:58.517,-1.71382,-1.13022,-0.146911,0,0,0
 17:48:58.518,-1.71338,-1.13027,-0.146974,0,0,0
 17:48:58.518,-1.71351,-1.13034,-0.146998,0,0,0
 17:48:58.519,-1.71361,-1.1299,-0.14704,0,0,0
 17:48:58.519,-1.71311,-1.12949,-0.147149,0,0,0
 17:48:58.520,-1.71315,-1.12849,-0.147276,0,0,0
 17:48:58.520,-1.71322,-1.12803,-0.147318,0,0,0
 17:48:58.521,-1.71334,-1.12759,-0.147438,0,0,0
 17:48:58.521,-1.71345,-1.12718,-0.147585,0,0,0
 17:48:58.522,-1.71362,-1.12679,-0.14769,0,0,0
 17:48:58.522,-1.71319,-1.12585,-0.147801,0,0,0
 17:48:58.523,-1.71274,-1.12494,-0.147964,0,0,0
 17:48:58.523,-1.71226,-1.12516,-0.148001,0,0,0
 17:48:58.524,-1.71229,-1.12535,-0.147987,0,0,0
 17:48:58.524,-1.71175,-1.12557,-0.148079,0,0,0
 17:48:58.525,-1.71182,-1.12524,-0.148187,0,0,0
 17:48:58.525,-1.71248,-1.12543,-0.148238,0,0,0
 17:48:58.525,-1.71315,-1.12558,-0.148328,0,0,0
 17:48:58.525,-1.71326,-1.12574,-0.148417,0,0,0
 17:48:58.526,-1.7139,-1.1259,-0.148495,0,0,0
 17:48:58.526,-1.71392,-1.12661,-0.148529,0,0,0
 17:48:58.527,-1.71399,-1.12732,-0.148603,0,0,0
 17:48:58.528,-1.71404,-1.12748,-0.148747,0,0,0
 17:48:58.528,-1.71411,-1.12818,-0.148926,0,0,0
 17:48:58.528,-1.71479,-1.12772,-0.149046,0,0,0
 17:48:58.529,-1.71544,-1.1273,-0.149035,0,0,0
 17:48:58.529,-1.71548,-1.12749,-0.14902,0,0,0
 17:48:58.530,-1.7155,-1.12767,-0.149139,0,0,0
 17:48:58.531,-1.71558,-1.12734,-0.149326,0,0,0
 17:48:58.531,-1.71622,-1.12758,-0.14943,0,0,0
 17:48:58.532,-1.71621,-1.12775,-0.149483,0,0,0
 17:48:58.532,-1.71559,-1.12728,-0.149606,0,0,0
 17:48:58.532,-1.71558,-1.12678,-0.149703,0,0,0
 17:48:58.533,-1.71616,-1.12627,-0.149785,0,0,0
 17:48:58.533,-1.71558,-1.12583,-0.149893,0,0,0
 17:48:58.534,-1.71563,-1.12543,-0.150001,0,0,0
 17:48:58.535,-1.71575,-1.12562,-0.15005,0,0,0
 17:48:58.535,-1.71528,-1.12464,-0.1502,0,0,0
 17:48:58.535,-1.71471,-1.12476,-0.150317,0,0,0
 17:48:58.536,-1.71415,-1.12437,-0.1504,0,0,0
 17:48:58.536,-1.71418,-1.12403,-0.150442,0,0,0
 17:48:58.537,-1.7136,-1.12367,-0.150538,0,0,0
 17:48:58.538,-1.71303,-1.12328,-0.150699,0,0,0
 17:48:58.538,-1.7125,-1.12287,-0.15082,0,0,0
 17:48:58.538,-1.71261,-1.12254,-0.150939,0,0,0
 17:48:58.539,-1.71273,-1.12339,-0.150997,0,0,0
 17:48:58.539,-1.71286,-1.12365,-0.151139,0,0,0
 17:48:58.540,-1.71296,-1.12391,-0.151281,0,0,0
 17:48:58.541,-1.71304,-1.12471,-0.151354,0,0,0
 17:48:58.541,-1.71309,-1.1249,-0.151392,0,0,0
 17:48:58.541,-1.7137,-1.1245,-0.15146,0,0,0
 17:48:58.542,-1.71375,-1.12468,-0.151551,0,0,0
 17:48:58.542,-1.71439,-1.12493,-0.151681,0,0,0
 17:48:58.543,-1.71444,-1.12517,-0.151745,0,0,0
 17:48:58.544,-1.7151,-1.12593,-0.151752,0,0,0
 17:48:58.544,-1.7152,-1.12662,-0.151797,0,0,0
 17:48:58.545,-1.71587,-1.12732,-0.151843,0,0,0
 17:48:58.545,-1.71597,-1.12808,-0.151902,0,0,0
 17:48:58.545,-1.71606,-1.12831,-0.152046,0,0,0
 17:48:58.546,-1.71554,-1.12853,-0.152163,0,0,0
 17:48:58.547,-1.71562,-1.12872,-0.152201,0,0,0
 17:48:58.547,-1.71568,-1.12891,-0.152358,0,0,0
 17:48:58.548,-1.71573,-1.12914,-0.152502,0,0,0
 17:48:58.548,-1.71583,-1.12941,-0.15258,0,0,0
 17:48:58.548,-1.71592,-1.12907,-0.152714,0,0,0
 17:48:58.549,-1.71542,-1.12867,-0.152862,0,0,0
 17:48:58.549,-1.71488,-1.12823,-0.152918,0,0,0
 17:48:58.550,-1.71434,-1.1284,-0.152996,0,0,0
 17:48:58.551,-1.71436,-1.12861,-0.153062,0,0,0
 17:48:58.551,-1.71439,-1.12824,-0.153066,0,0,0
 17:48:58.551,-1.71504,-1.12785,-0.153174,0,0,0
 17:48:58.552,-1.71516,-1.12747,-0.15332,0,0,0
 17:48:58.552,-1.71524,-1.12712,-0.153388,0,0,0
 17:48:58.553,-1.71469,-1.1267,-0.153524,0,0,0
 17:48:58.554,-1.7142,-1.12685,-0.153587,0,0,0
 17:48:58.554,-1.71427,-1.12649,-0.153629,0,0,0
 17:48:58.555,-1.71434,-1.12613,-0.153658,0,0,0
 17:48:58.555,-1.71379,-1.12574,-0.153779,0,0,0
 17:48:58.555,-1.71326,-1.12532,-0.153954,0,0,0
 17:48:58.556,-1.71284,-1.12548,-0.154056,0,0,0
 17:48:58.557,-1.71301,-1.12452,-0.154178,0,0,0
 17:48:58.557,-1.7149,-1.12364,-0.154301,0,0,0
 17:48:58.557,-1.71438,-1.12385,-0.154364,0,0,0
 17:48:58.558,-1.71381,-1.12458,-0.154451,0,0,0
 17:48:58.558,-1.71315,-1.1247,-0.154558,0,0,0
 17:48:58.559,-1.71251,-1.12484,-0.154651,0,0,0
 17:48:58.560,-1.71309,-1.12449,-0.154734,0,0,0
 17:48:58.560,-1.71438,-1.12415,-0.15476,0,0,0
 17:48:58.561,-1.71642,-1.12441,-0.154686,0,0,0
 17:48:58.561,-1.71791,-1.12468,-0.154703,0,0,0
 17:48:58.561,-1.71814,-1.1249,-0.154801,0,0,0
 17:48:58.562,-1.71825,-1.12453,-0.154933,0,0,0
 17:48:58.563,-1.71709,-1.12412,-0.155002,0,0,0
 17:48:58.563,-1.71528,-1.12311,-0.155063,0,0,0
 17:48:58.564,-1.71461,-1.12156,-0.155168,0,0,0
 17:48:58.564,-1.71581,-1.12007,-0.155295,0,0,0
 17:48:58.564,-1.71773,-1.11985,-0.155385,0,0,0
 17:48:58.565,-1.71968,-1.1203,-0.155377,0,0,0
 17:48:58.565,-1.72159,-1.12137,-0.155419,0,0,0
 17:48:58.566,-1.72167,-1.12297,-0.155446,0,0,0
 17:48:58.567,-1.72106,-1.12443,-0.155462,0,0,0
 17:48:58.567,-1.71917,-1.12517,-0.155579,0,0,0
 17:48:58.567,-1.71726,-1.12522,-0.155754,0,0,0
 17:48:58.568,-1.71654,-1.12531,-0.155848,0,0,0
 17:48:58.568,-1.71647,-1.1255,-0.15594,0,0,0
 17:48:58.569,-1.71648,-1.12511,-0.156075,0,0,0
 17:48:58.570,-1.7183,-1.12472,-0.156168,0,0,0
 17:48:58.570,-1.71962,-1.12494,-0.156176,0,0,0
 17:48:58.571,-1.71975,-1.12517,-0.15621,0,0,0
 17:48:58.571,-1.71924,-1.12483,-0.156343,0,0,0
 17:48:58.571,-1.71864,-1.12392,-0.156442,0,0,0
 17:48:58.572,-1.71738,-1.12296,-0.15653,0,0,0
 17:48:58.573,-1.71613,-1.12196,-0.156684,0,0,0
 17:48:58.573,-1.71614,-1.12215,-0.1568,0,0,0
 17:48:58.574,-1.71734,-1.12183,-0.156933,0,0,0
 17:48:58.574,-1.7186,-1.12216,-0.157126,0,0,0
 17:48:58.574,-1.72048,-1.12253,-0.157227,0,0,0
 17:48:58.575,-1.72119,-1.12346,-0.15723,0,0,0
 17:48:58.576,-1.72182,-1.12382,-0.1572,0,0,0
 17:48:58.576,-1.7212,-1.12417,-0.157225,0,0,0
 17:48:58.577,-1.72051,-1.1244,-0.157357,0,0,0
 17:48:58.577,-1.7198,-1.12515,-0.157433,0,0,0
 17:48:58.577,-1.71969,-1.12646,-0.157387,0,0,0
 17:48:58.578,-1.72021,-1.12668,-0.157426,0,0,0
 17:48:58.579,-1.72078,-1.12691,-0.157557,0,0,0
 17:48:58.579,-1.72141,-1.12775,-0.157616,0,0,0
 17:48:58.580,-1.72203,-1.12858,-0.157649,0,0,0
 17:48:58.580,-1.72201,-1.12877,-0.157702,0,0,0
 17:48:58.581,-1.72194,-1.12777,-0.157749,0,0,0
 17:48:58.581,-1.72127,-1.12683,-0.157784,0,0,0
 17:48:58.581,-1.72063,-1.12588,-0.157832,0,0,0
 17:48:58.582,-1.71996,-1.12546,-0.157889,0,0,0
 17:48:58.583,-1.71991,-1.12457,-0.158094,0,0,0
 17:48:58.583,-1.71989,-1.12485,-0.158239,0,0,0
 17:48:58.584,-1.71992,-1.12452,-0.158306,0,0,0
 17:48:58.584,-1.72052,-1.12419,-0.158347,0,0,0
 17:48:58.585,-1.72054,-1.1239,-0.15848,0,0,0
 17:48:58.585,-1.71998,-1.12361,-0.158707,0,0,0
 17:48:58.586,-1.71935,-1.12325,-0.158948,0,0,0
 17:48:58.586,-1.71816,-1.12344,-0.159025,0,0,0
 17:48:58.587,-1.71758,-1.12363,-0.159089,0,0,0
 17:48:58.587,-1.71765,-1.12388,-0.159244,0,0,0
 17:48:58.587,-1.71773,-1.1247,-0.159382,0,0,0
 17:48:58.588,-1.71783,-1.12492,-0.159536,0,0,0
 17:48:58.589,-1.71791,-1.12452,-0.159709,0,0,0
 17:48:58.589,-1.718,-1.12528,-0.159754,0,0,0
 17:48:58.590,-1.71808,-1.12546,-0.159777,0,0,0
 17:48:58.590,-1.71809,-1.12507,-0.159924,0,0,0
 17:48:58.590,-1.71805,-1.12528,-0.160056,0,0,0
 17:48:58.591,-1.71806,-1.12489,-0.160164,0,0,0
 17:48:58.592,-1.7181,-1.12446,-0.160323,0,0,0
 17:48:58.592,-1.71819,-1.12467,-0.160478,0,0,0
 17:48:58.593,-1.71829,-1.12498,-0.16058,0,0,0
 17:48:58.593,-1.7195,-1.12525,-0.160656,0,0,0
 17:48:58.594,-1.72011,-1.12492,-0.160737,0,0,0
 17:48:58.594,-1.72069,-1.12516,-0.160774,0,0,0
 17:48:58.595,-1.72129,-1.12537,-0.160771,0,0,0
 17:48:58.595,-1.72129,-1.12555,-0.160703,0,0,0
 17:48:58.596,-1.72128,-1.12572,-0.160766,0,0,0
 17:48:58.596,-1.72125,-1.12594,-0.160858,0,0,0
 17:48:58.597,-1.72119,-1.12558,-0.160927,0,0,0
 17:48:58.597,-1.72115,-1.12577,-0.160978,0,0,0
 17:48:58.597,-1.7212,-1.12598,-0.161068,0,0,0
 17:48:58.598,-1.72129,-1.12623,-0.161142,0,0,0
 17:48:58.599,-1.72135,-1.12636,-0.161152,0,0,0
 17:48:58.599,-1.72139,-1.12647,-0.161162,0,0,0
 17:48:58.600,-1.72133,-1.1272,-0.161236,0,0,0
 17:48:58.600,-1.72073,-1.128,-0.161324,0,0,0
 17:48:58.600,-1.72016,-1.12825,-0.161441,0,0,0
 17:48:58.601,-1.72012,-1.12839,-0.161574,0,0,0
 17:48:58.602,-1.72007,-1.12856,-0.161679,0,0,0
 17:48:58.602,-1.72009,-1.12824,-0.16184,0,0,0
 17:48:58.603,-1.72072,-1.12787,-0.16204,0,0,0
 17:48:58.603,-1.72071,-1.12743,-0.162162,0,0,0
 17:48:58.604,-1.72012,-1.12696,-0.162257,0,0,0
 17:48:58.604,-1.72019,-1.12653,-0.162324,0,0,0
 17:48:58.605,-1.72017,-1.1261,-0.162353,0,0,0
 17:48:58.605,-1.7201,-1.12512,-0.162453,0,0,0
 17:48:58.606,-1.71954,-1.1248,-0.1626,0,0,0
 17:48:58.606,-1.71959,-1.12452,-0.16272,0,0,0
 17:48:58.607,-1.71904,-1.12427,-0.162762,0,0,0
 17:48:58.607,-1.71963,-1.12396,-0.16279,0,0,0
 17:48:58.608,-1.71963,-1.1242,-0.16288,0,0,0
 17:48:58.608,-1.72025,-1.12452,-0.163023,0,0,0
 17:48:58.609,-1.72027,-1.12542,-0.163135,0,0,0
 17:48:58.609,-1.71967,-1.12623,-0.163196,0,0,0
 17:48:58.610,-1.71966,-1.12695,-0.163256,0,0,0
 17:48:58.610,-1.71962,-1.12654,-0.163299,0,0,0
 17:48:58.611,-1.71963,-1.12614,-0.163314,0,0,0
 17:48:58.611,-1.71908,-1.12625,-0.163378,0,0,0
 17:48:58.612,-1.71969,-1.12759,-0.16342,0,0,0
 17:48:58.612,-1.71974,-1.12786,-0.16355,0,0,0
 17:48:58.613,-1.71978,-1.12868,-0.16361,0,0,0
 17:48:58.613,-1.71974,-1.12949,-0.163593,0,0,0
 17:48:58.613,-1.71906,-1.12964,-0.163661,0,0,0
 17:48:58.614,-1.71846,-1.12979,-0.163806,0,0,0
 17:48:58.615,-1.71786,-1.12934,-0.16393,0,0,0
 17:48:58.615,-1.71732,-1.12885,-0.164038,0,0,0
 17:48:58.616,-1.71736,-1.12902,-0.164129,0,0,0
 17:48:58.616,-1.71795,-1.12928,-0.164274,0,0,0
 17:48:58.617,-1.71802,-1.12897,-0.164382,0,0,0
 17:48:58.617,-1.71866,-1.12921,-0.164367,0,0,0
 17:48:58.618,-1.71931,-1.12935,-0.16443,0,0,0
 17:48:58.618,-1.71879,-1.12948,-0.164574,0,0,0
 17:48:58.619,-1.71822,-1.12905,-0.164656,0,0,0
 17:48:58.619,-1.71763,-1.12915,-0.164655,0,0,0
 17:48:58.620,-1.7171,-1.12927,-0.164588,0,0,0
 17:48:58.620,-1.71715,-1.12886,-0.164604,0,0,0
 17:48:58.621,-1.71782,-1.12846,-0.164698,0,0,0
 17:48:58.621,-1.71789,-1.12918,-0.164757,0,0,0
 17:48:58.622,-1.71798,-1.12929,-0.164821,0,0,0
 17:48:58.622,-1.71806,-1.12942,-0.164871,0,0,0
 17:48:58.623,-1.7181,-1.1296,-0.165002,0,0,0
 17:48:58.623,-1.71812,-1.12978,-0.165081,0,0,0
 17:48:58.624,-1.71755,-1.13048,-0.165116,0,0,0
 17:48:58.624,-1.71702,-1.13067,-0.165234,0,0,0
 17:48:58.625,-1.71647,-1.13081,-0.165366,0,0,0
 17:48:58.625,-1.71659,-1.13093,-0.165496,0,0,0
 17:48:58.626,-1.71671,-1.13105,-0.165626,0,0,0
 17:48:58.626,-1.71682,-1.13178,-0.165712,0,0,0
 17:48:58.627,-1.71694,-1.13193,-0.165829,0,0,0
 17:48:58.627,-1.71706,-1.13209,-0.165893,0,0,0
 17:48:58.628,-1.71711,-1.13163,-0.165922,0,0,0
 17:48:58.628,-1.71716,-1.13111,-0.165939,0,0,0
 17:48:58.629,-1.71661,-1.13117,-0.165978,0,0,0
 17:48:58.629,-1.71603,-1.13125,-0.166097,0,0,0
 17:48:58.629,-1.71605,-1.13139,-0.166203,0,0,0
 17:48:58.630,-1.71667,-1.13155,-0.166282,0,0,0
 17:48:58.631,-1.71615,-1.13167,-0.166361,0,0,0
 17:48:58.631,-1.71616,-1.13124,-0.166471,0,0,0
 17:48:58.632,-1.71615,-1.13082,-0.166595,0,0,0
 17:48:58.632,-1.71615,-1.13094,-0.166714,0,0,0
 17:48:58.633,-1.71618,-1.13047,-0.166758,0,0,0
 17:48:58.633,-1.7156,-1.12947,-0.166859,0,0,0
 17:48:58.634,-1.71564,-1.12906,-0.166915,0,0,0
 17:48:58.634,-1.71572,-1.12867,-0.166891,0,0,0
 17:48:58.635,-1.71583,-1.1294,-0.166937,0,0,0
 17:48:58.635,-1.71587,-1.12954,-0.167029,0,0,0
 17:48:58.636,-1.7153,-1.12971,-0.167095,0,0,0
 17:48:58.638,-1.71477,-1.12986,-0.167293,0,0,0
 17:48:58.638,-1.71424,-1.13,-0.167504,0,0,0
 17:48:58.638,-1.71485,-1.1296,-0.167693,0,0,0
 17:48:58.638,-1.71487,-1.12921,-0.167816,0,0,0
 17:48:58.638,-1.7155,-1.12823,-0.167875,0,0,0
 17:48:58.639,-1.71611,-1.12837,-0.16794,0,0,0
 17:48:58.639,-1.71619,-1.1285,-0.168136,0,0,0
 17:48:58.640,-1.71628,-1.12806,-0.168323,0,0,0
 17:48:58.640,-1.71632,-1.12766,-0.168405,0,0,0
 17:48:58.641,-2.51698,-1.12774,-0.168439,0,0,0
 17:48:58.641,-2.50843,-1.12735,-0.168605,0,0,0
 17:48:58.642,-2.49999,-1.12746,-0.168667,0,0,0
 17:48:58.642,-2.49106,-1.12756,-0.168728,0,0,0
 17:48:58.643,-2.48337,-1.12771,-0.168737,0,0,0
 17:48:58.643,-2.4758,-1.12739,-0.168822,0,0,0
 17:48:58.644,-2.4683,-1.12707,-0.168907,0,0,0
 17:48:58.644,-2.46088,-1.12676,-0.168992,0,0,0
 17:48:58.645,-2.45356,-1.12694,-0.169025,0,0,0
 17:48:58.645,-2.44632,-1.12717,-0.169032,0,0,0
 17:48:58.646,-2.43915,-1.12741,-0.169038,0,0,0
 17:48:58.646,-2.43263,-1.12764,-0.169045,0,0,0
 17:48:58.647,-2.42552,-1.12779,-0.169186,0,0,0
 17:48:58.647,-2.41846,-1.12798,-0.169342,0,0,0
 17:48:58.648,-2.41146,-1.12817,-0.169498,0,0,0
 17:48:58.648,-2.40454,-1.12836,-0.169654,0,0,0
 17:48:58.649,-2.39768,-1.12854,-0.16981,0,0,0
 17:48:58.649,-2.3909,-1.12873,-0.169966,0,0,0
 17:48:58.650,-2.38418,-1.12891,-0.170122,0,0,0
 17:48:58.650,-2.37756,-1.12797,-0.170219,0,0,0
 17:48:58.651,-2.371,-1.12703,-0.170315,0,0,0
 17:48:58.651,-2.36452,-1.12611,-0.170411,0,0,0
 17:48:58.652,-2.35809,-1.12519,-0.170507,0,0,0
 17:48:58.652,-2.35165,-1.12538,-0.17053,0,0,0
 17:48:58.653,-2.34527,-1.12556,-0.170554,0,0,0
 17:48:58.653,-2.33896,-1.12573,-0.170578,0,0,0
 17:48:58.654,-2.33271,-1.12591,-0.170602,0,0,0
 17:48:58.654,-2.32652,-1.12608,-0.170626,0,0,0
 17:48:58.655,-2.32039,-1.12626,-0.17065,0,0,0
 17:48:58.655,-2.31433,-1.12643,-0.170674,0,0,0
 17:48:58.656,-2.30832,-1.1266,-0.170698,0,0,0
 17:48:58.656,-2.30238,-1.12677,-0.170722,0,0,0
 17:48:58.657,-2.29649,-1.12693,-0.170747,0,0,0
 17:48:58.657,-2.29066,-1.1271,-0.170771,0,0,0
 17:48:58.658,-2.2849,-1.12726,-0.170796,0,0,0
 17:48:58.658,-2.27919,-1.12742,-0.17082,0,0,0
 17:48:58.659,-2.27353,-1.12758,-0.170845,0,0,0
 17:48:58.659,-2.26794,-1.12774,-0.17087,0,0,0
 17:48:58.660,-2.26239,-1.12789,-0.170895,0,0,0
 17:48:58.660,-2.25691,-1.12805,-0.17092,0,0,0
 17:48:58.661,-2.25148,-1.1282,-0.170945,0,0,0
 17:48:58.661,-2.2461,-1.12835,-0.17097,0,0,0
 17:48:58.661,-2.24078,-1.1285,-0.170995,0,0,0
 17:48:58.662,-2.23551,-1.12865,-0.17102,0,0,0
 17:48:58.663,-2.23029,-1.1288,-0.171046,0,0,0
 17:48:58.663,-2.22513,-1.12894,-0.171071,0,0,0
 17:48:58.664,-2.22001,-1.12909,-0.171097,0,0,0
 17:48:58.664,-2.21495,-1.12923,-0.171122,0,0,0
 17:48:58.665,-2.20994,-1.12937,-0.171148,0,0,0
 17:48:58.665,-2.20498,-1.12951,-0.171174,0,0,0
 17:48:58.666,-2.20007,-1.12965,-0.1712,0,0,0
 17:48:58.666,-2.19521,-1.12979,-0.171225,0,0,0
 17:48:58.667,-2.19039,-1.12992,-0.171251,0,0,0
 17:48:58.667,-2.18563,-1.13006,-0.171277,0,0,0
 17:48:58.668,-2.18091,-1.13019,-0.171303,0,0,0
 17:48:58.669,-2.17624,-1.13032,-0.17133,0,0,0
 17:48:58.669,-2.17161,-1.13045,-0.171356,0,0,0
 17:48:58.669,-2.16704,-1.13058,-0.171382,0,0,0
 17:48:58.670,-2.16251,-1.13071,-0.171408,0,0,0
 17:48:58.670,-2.15802,-1.13084,-0.171435,0,0,0
 17:48:58.671,-2.15358,-1.13096,-0.171461,0,0,0
 17:48:58.671,-2.14975,-1.13109,-0.171488,0,0,0
 17:48:58.672,-2.1455,-1.13069,-0.171599,0,0,0
 17:48:58.672,-2.14182,-1.13035,-0.171698,0,0,0
 17:48:58.673,-2.13756,-1.13053,-0.17179,0,0,0
 17:48:58.673,-2.13274,-1.1306,-0.171857,0,0,0
 17:48:58.674,-2.12858,-1.13067,-0.171816,0,0,0
 17:48:58.674,-2.125,-1.13072,-0.171816,0,0,0
 17:48:58.675,-2.12156,-1.13085,-0.171853,0,0,0
 17:48:58.676,-2.11819,-1.13103,-0.171928,0,0,0
 17:48:58.676,-2.11426,-1.1306,-0.172053,0,0,0
 17:48:58.676,-2.11088,-1.13021,-0.172126,0,0,0
 17:48:58.677,-2.10692,-1.13044,-0.172178,0,0,0
 17:48:58.677,-2.1024,-1.13005,-0.172239,0,0,0
 17:48:58.678,-2.09792,-1.13021,-0.172306,0,0,0
 17:48:58.678,-2.09412,-1.13041,-0.172424,0,0,0
 17:48:58.679,-2.09044,-1.13059,-0.172593,0,0,0
 17:48:58.679,-2.08683,-1.13072,-0.172694,0,0,0
 17:48:58.680,-2.08322,-1.13086,-0.172744,0,0,0
 17:48:58.680,-2.07957,-1.1311,-0.172757,0,0,0
 17:48:58.681,-2.07596,-1.1319,-0.172815,0,0,0
 17:48:58.682,-2.073,-1.13262,-0.172951,0,0,0
 17:48:58.682,-2.06888,-1.1327,-0.173069,0,0,0
 17:48:58.682,-2.06474,-1.13219,-0.17317,0,0,0
 17:48:58.683,-2.06128,-1.13112,-0.173303,0,0,0
 17:48:58.683,-2.05788,-1.13008,-0.173422,0,0,0
 17:48:58.684,-2.05454,-1.12909,-0.173527,0,0,0
 17:48:58.684,-2.05181,-1.12868,-0.173623,0,0,0
 17:48:58.685,-2.04916,-1.12831,-0.173706,0,0,0
 17:48:58.685,-2.04652,-1.12907,-0.173826,0,0,0
 17:48:58.686,-2.04333,-1.12869,-0.174041,0,0,0
 17:48:58.686,-2.04069,-1.12891,-0.174197,0,0,0
 17:48:58.687,-2.03752,-1.1291,-0.174313,0,0,0
 17:48:58.687,-2.03443,-1.12926,-0.174389,0,0,0
 17:48:58.688,-2.03134,-1.12938,-0.174438,0,0,0
 17:48:58.688,-2.02825,-1.12897,-0.174443,0,0,0
 17:48:58.689,-2.02519,-1.12859,-0.174474,0,0,0
 17:48:58.689,-2.0222,-1.12878,-0.174537,0,0,0
 17:48:58.690,-2.01918,-1.12888,-0.174653,0,0,0
 17:48:58.690,-2.01564,-1.12956,-0.17475,0,0,0
 17:48:58.691,-2.01211,-1.12969,-0.174801,0,0,0
 17:48:58.691,-2.00855,-1.12981,-0.17488,0,0,0
 17:48:58.692,-2.00621,-1.13,-0.175025,0,0,0
 17:48:58.692,-2.00337,-1.13022,-0.175102,0,0,0
 17:48:58.693,-2.00054,-1.1298,-0.175147,0,0,0
 17:48:58.693,-1.99782,-1.12935,-0.175229,0,0,0
 17:48:58.694,-1.9946,-1.12888,-0.175376,0,0,0
 17:48:58.694,-1.99192,-1.12845,-0.175485,0,0,0
 17:48:58.695,-1.98919,-1.12804,-0.17553,0,0,0
 17:48:58.695,-1.98652,-1.12823,-0.175553,0,0,0
 17:48:58.696,-1.98391,-1.1279,-0.175649,0,0,0
 17:48:58.696,-1.98132,-1.1276,-0.175692,0,0,0
 17:48:58.697,-1.97819,-1.12666,-0.175808,0,0,0
 17:48:58.698,-1.97562,-1.12625,-0.175983,0,0,0
 17:48:58.698,-1.97305,-1.12586,-0.176146,0,0,0
 17:48:58.698,-1.97053,-1.12606,-0.176236,0,0,0
 17:48:58.699,-1.96749,-1.12625,-0.176258,0,0,0
 17:48:58.699,-1.96507,-1.12644,-0.176294,0,0,0
 17:48:58.700,-1.96266,-1.12668,-0.176396,0,0,0
 17:48:58.701,-1.96029,-1.12697,-0.176551,0,0,0
 17:48:58.701,-1.9573,-1.12669,-0.176702,0,0,0
 17:48:58.702,-1.9543,-1.12639,-0.176787,0,0,0
 17:48:58.702,-1.95143,-1.12664,-0.176836,0,0,0
 17:48:58.702,-1.94916,-1.12689,-0.176938,0,0,0
 17:48:58.703,-1.94691,-1.12657,-0.177034,0,0,0
 17:48:58.703,-1.94467,-1.1268,-0.177057,0,0,0
 17:48:58.704,-1.94307,-1.12649,-0.177218,0,0,0
 17:48:58.704,-1.94093,-1.12673,-0.177399,0,0,0
 17:48:58.705,-1.93936,-1.12692,-0.17754,0,0,0
 17:48:58.705,-1.93718,-1.12711,-0.177696,0,0,0
 17:48:58.706,-1.93556,-1.12733,-0.177827,0,0,0
 17:48:58.706,-1.93336,-1.12814,-0.177872,0,0,0
 17:48:58.707,-1.93119,-1.12834,-0.177898,0,0,0
 17:48:58.708,-1.92967,-1.12852,-0.177896,0,0,0
 17:48:58.708,-1.9276,-1.12866,-0.178012,0,0,0
 17:48:58.708,-1.92494,-1.12886,-0.178076,0,0,0
 17:48:58.709,-1.9223,-1.12852,-0.178108,0,0,0
 17:48:58.709,-1.92022,-1.12871,-0.178226,0,0,0
 17:48:58.710,-1.91813,-1.12883,-0.178372,0,0,0
 17:48:58.711,-1.91615,-1.12837,-0.178468,0,0,0
 17:48:58.711,-1.91425,-1.12846,-0.178584,0,0,0
 17:48:58.711,-1.91176,-1.12861,-0.178687,0,0,0
 17:48:58.712,-1.90988,-1.12886,-0.17879,0,0,0
 17:48:58.712,-1.908,-1.12909,-0.178894,0,0,0
 17:48:58.713,-1.90549,-1.12869,-0.178992,0,0,0
 17:48:58.714,-1.90359,-1.12885,-0.179044,0,0,0
 17:48:58.714,-1.90115,-1.12848,-0.179116,0,0,0
 17:48:58.714,-1.89872,-1.12815,-0.179081,0,0,0
 17:48:58.715,-1.89631,-1.12837,-0.17912,0,0,0
 17:48:58.715,-1.89511,-1.12852,-0.179264,0,0,0
 17:48:58.716,-1.89398,-1.12865,-0.179354,0,0,0
 17:48:58.717,-1.89285,-1.12883,-0.179364,0,0,0
 17:48:58.717,-1.89113,-1.12845,-0.179422,0,0,0
 17:48:58.718,-1.88945,-1.12806,-0.179557,0,0,0
 17:48:58.718,-1.88782,-1.12823,-0.179673,0,0,0
 17:48:58.718,-1.88611,-1.12841,-0.179791,0,0,0
 17:48:58.719,-1.88439,-1.12747,-0.179921,0,0,0
 17:48:58.719,-1.88217,-1.12764,-0.180024,0,0,0
 17:48:58.720,-1.88004,-1.12834,-0.180081,0,0,0
 17:48:58.720,-1.8785,-1.12848,-0.180131,0,0,0
 17:48:58.721,-1.87748,-1.12866,-0.180196,0,0,0
 17:48:58.721,-1.87539,-1.12892,-0.180246,0,0,0
 17:48:58.722,-1.8739,-1.12859,-0.180354,0,0,0
 17:48:58.722,-1.8724,-1.12766,-0.180469,0,0,0
 17:48:58.723,-1.8709,-1.1279,-0.180466,0,0,0
 17:48:58.724,-1.86879,-1.12813,-0.180492,0,0,0
 17:48:58.724,-1.86673,-1.1278,-0.180641,0,0,0
 17:48:58.724,-1.8653,-1.12688,-0.180834,0,0,0
 17:48:58.725,-1.86388,-1.1265,-0.180982,0,0,0
 17:48:58.725,-1.86247,-1.12617,-0.181064,0,0,0
 17:48:58.726,-1.86056,-1.12648,-0.181179,0,0,0
 17:48:58.727,-1.85865,-1.12618,-0.181287,0,0,0
 17:48:58.727,-1.85727,-1.12643,-0.181324,0,0,0
 17:48:58.727,-1.85588,-1.12662,-0.181388,0,0,0
 17:48:58.728,-1.85454,-1.12621,-0.181576,0,0,0
 17:48:58.728,-1.85322,-1.12528,-0.18173,0,0,0
 17:48:58.729,-1.85256,-1.12442,-0.181788,0,0,0
 17:48:58.730,-1.85131,-1.1241,-0.181868,0,0,0
 17:48:58.730,-1.84945,-1.1238,-0.182002,0,0,0
 17:48:58.730,-1.84824,-1.12413,-0.18209,0,0,0
 17:48:58.731,-1.84648,-1.12445,-0.182164,0,0,0
 17:48:58.731,-1.84471,-1.1247,-0.182212,0,0,0
 17:48:58.732,-1.84292,-1.12434,-0.182346,0,0,0
 17:48:58.733,-1.84173,-1.124,-0.182507,0,0,0
 17:48:58.733,-1.83995,-1.12371,-0.182601,0,0,0
 17:48:58.734,-1.83758,-1.12396,-0.182639,0,0,0
 17:48:58.734,-1.83639,-1.12417,-0.182729,0,0,0
 17:48:58.734,-1.83526,-1.12493,-0.182773,0,0,0
 17:48:58.735,-1.83356,-1.12513,-0.182796,0,0,0
 17:48:58.735,-1.83246,-1.12541,-0.182885,0,0,0
 17:48:58.736,-1.83133,-1.12569,-0.182949,0,0,0
 17:48:58.737,-1.82962,-1.12588,-0.182974,0,0,0
 17:48:58.737,-1.82789,-1.12603,-0.183039,0,0,0
 17:48:58.737,-1.82617,-1.1262,-0.183091,0,0,0
 17:48:58.738,-1.8245,-1.12587,-0.183121,0,0,0
 17:48:58.738,-1.8229,-1.12614,-0.183198,0,0,0
 17:48:58.739,-1.82189,-1.12638,-0.183288,0,0,0
 17:48:58.740,-1.82085,-1.12653,-0.183405,0,0,0
 17:48:58.740,-1.81979,-1.12731,-0.183466,0,0,0
 17:48:58.741,-1.81817,-1.12754,-0.183452,0,0,0
 17:48:58.741,-1.81715,-1.12772,-0.183544,0,0,0
 17:48:58.741,-1.81673,-1.12728,-0.183693,0,0,0
 17:48:58.742,-1.81518,-1.12684,-0.183815,0,0,0
 17:48:58.743,-1.81418,-1.1264,-0.183898,0,0,0
 17:48:58.743,-1.8132,-1.12596,-0.184021,0,0,0
 17:48:58.744,-1.81225,-1.12562,-0.184169,0,0,0
 17:48:58.744,-1.81073,-1.12586,-0.184261,0,0,0
 17:48:58.744,-1.80976,-1.12545,-0.184318,0,0,0
 17:48:58.745,-1.80886,-1.1256,-0.184421,0,0,0
 17:48:58.746,-1.80799,-1.12525,-0.184542,0,0,0
 17:48:58.746,-1.80769,-1.1243,-0.184654,0,0,0
 17:48:58.747,-1.80742,-1.1245,-0.184717,0,0,0
 17:48:58.747,-1.80711,-1.1247,-0.184754,0,0,0
 17:48:58.747,-1.80678,-1.1249,-0.184805,0,0,0
 17:48:58.748,-1.80588,-1.12516,-0.184909,0,0,0
 17:48:58.749,-1.805,-1.126,-0.184982,0,0,0
 17:48:58.749,-1.80412,-1.12734,-0.184957,0,0,0
 17:48:58.750,-1.80327,-1.12806,-0.184951,0,0,0
 17:48:58.750,-1.80181,-1.12875,-0.184999,0,0,0
 17:48:58.750,-1.80095,-1.12883,-0.185091,0,0,0
 17:48:58.751,-1.80014,-1.12887,-0.185195,0,0,0
 17:48:58.751,-1.79933,-1.12891,-0.185273,0,0,0
 17:48:58.752,-1.79851,-1.12901,-0.185325,0,0,0
 17:48:58.753,-1.79775,-1.12916,-0.185389,0,0,0
 17:48:58.753,-1.79702,-1.12935,-0.185493,0,0,0
 17:48:58.754,-1.79621,-1.12952,-0.185466,0,0,0
 17:48:58.754,-1.79596,-1.12908,-0.185485,0,0,0
 17:48:58.754,-1.79458,-1.12863,-0.185621,0,0,0
 17:48:58.755,-1.7932,-1.1282,-0.185758,0,0,0
 17:48:58.756,-1.79189,-1.12774,-0.185867,0,0,0
 17:48:58.756,-1.79117,-1.12726,-0.185923,0,0,0
 17:48:58.756,-1.79044,-1.12683,-0.185966,0,0,0
 17:48:58.757,-1.79026,-1.12645,-0.186062,0,0,0
 17:48:58.757,-1.78955,-1.12609,-0.186251,0,0,0
 17:48:58.758,-1.78891,-1.12572,-0.186397,0,0,0
 17:48:58.759,-1.7877,-1.12594,-0.18646,0,0,0
 17:48:58.759,-1.78647,-1.12618,-0.186497,0,0,0
 17:48:58.760,-1.78586,-1.12579,-0.186644,0,0,0
 17:48:58.760,-1.7852,-1.12538,-0.186805,0,0,0
 17:48:58.760,-1.78453,-1.12557,-0.186856,0,0,0
 17:48:58.761,-1.78326,-1.12518,-0.186939,0,0,0
 17:48:58.762,-1.78264,-1.1254,-0.187003,0,0,0
 17:48:58.762,-1.78142,-1.12562,-0.187067,0,0,0
 17:48:58.763,-1.78082,-1.12584,-0.187144,0,0,0
 17:48:58.763,-1.78028,-1.12662,-0.187202,0,0,0
 17:48:58.763,-1.77975,-1.12682,-0.187237,0,0,0
 17:48:58.764,-1.77919,-1.12701,-0.187314,0,0,0
 17:48:58.765,-1.77797,-1.12714,-0.187393,0,0,0
 17:48:58.765,-1.77678,-1.12723,-0.187458,0,0,0
 17:48:58.766,-1.77677,-1.12682,-0.187501,0,0,0
 17:48:58.766,-1.77681,-1.12703,-0.187524,0,0,0
 17:48:58.766,-1.77683,-1.12718,-0.187628,0,0,0
 17:48:58.767,-1.77685,-1.1273,-0.187758,0,0,0
 17:48:58.767,-1.77632,-1.12691,-0.187865,0,0,0
 17:48:58.768,-1.77577,-1.12658,-0.187987,0,0,0
 17:48:58.769,-1.7752,-1.12681,-0.188105,0,0,0
 17:48:58.769,-1.77403,-1.12697,-0.188223,0,0,0
 17:48:58.769,-1.77294,-1.12656,-0.188305,0,0,0
 17:48:58.770,-1.77185,-1.12677,-0.188342,0,0,0
 17:48:58.770,-1.77135,-1.127,-0.188419,0,0,0
 17:48:58.771,-1.77081,-1.12727,-0.188524,0,0,0
 17:48:58.772,-1.77024,-1.12751,-0.188617,0,0,0
 17:48:58.772,-1.7697,-1.12766,-0.188709,0,0,0
 17:48:58.773,-1.76861,-1.12784,-0.188841,0,0,0
 17:48:58.773,-1.76812,-1.12803,-0.188972,0,0,0
 17:48:58.773,-1.76699,-1.12757,-0.189016,0,0,0
 17:48:58.774,-1.76586,-1.1271,-0.189073,0,0,0
 17:48:58.775,-1.76531,-1.12666,-0.189171,0,0,0
 17:48:58.775,-1.76423,-1.12682,-0.189249,0,0,0
 17:48:58.776,-1.76437,-1.12705,-0.189353,0,0,0
 17:48:58.776,-1.76458,-1.12675,-0.189487,0,0,0
 17:48:58.776,-1.76474,-1.12701,-0.189537,0,0,0
 17:48:58.777,-1.76427,-1.12722,-0.189563,0,0,0
 17:48:58.778,-1.7638,-1.12742,-0.189601,0,0,0
 17:48:58.778,-1.76337,-1.12703,-0.189723,0,0,0
 17:48:58.779,-1.76296,-1.12602,-0.189796,0,0,0
 17:48:58.779,-1.76258,-1.12557,-0.18981,0,0,0
 17:48:58.780,-1.76213,-1.12572,-0.189847,0,0,0
 17:48:58.780,-1.76171,-1.12595,-0.189898,0,0,0
 17:48:58.781,-1.76127,-1.1262,-0.18995,0,0,0
 17:48:58.781,-1.76087,-1.127,-0.190089,0,0,0
 17:48:58.782,-1.76107,-1.12718,-0.190311,0,0,0
 17:48:58.782,-1.76005,-1.12788,-0.190425,0,0,0
 17:48:58.783,-1.75902,-1.12802,-0.190531,0,0,0
 17:48:58.783,-1.75858,-1.12763,-0.190667,0,0,0
 17:48:58.783,-1.75757,-1.12777,-0.190707,0,0,0
 17:48:58.784,-1.75716,-1.12786,-0.190745,0,0,0
 17:48:58.785,-1.75675,-1.12803,-0.190811,0,0,0
 17:48:58.785,-1.75639,-1.12881,-0.190858,0,0,0
 17:48:58.786,-1.75607,-1.1296,-0.19097,0,0,0
 17:48:58.786,-1.75572,-1.13029,-0.191071,0,0,0
