时间,pitch,roll,yaw,gyroX_bias,gyroY_bias,gyroZ_bias,
 16:27:44.360,-1.71821,-1.03129,0.0154638,0,0,0
 16:27:44.360,-1.71772,-1.03337,0.0149829,0,0,0
 16:27:44.366,-1.71665,-1.03381,0.0147438,0,0,0
 16:27:44.375,-1.71643,-1.03459,0.0147869,0,0,0
 16:27:44.386,-1.71647,-1.03523,0.0147997,0,0,0
 16:27:44.396,-1.71784,-1.03617,0.0138132,0,0,0
 16:27:44.406,-1.71704,-1.03654,0.0114773,0,0,0
 16:27:44.415,-1.71704,-1.03845,0.011499,0,0,0
 16:27:44.426,-1.71754,-1.0388,0.0104791,0,0,0
 16:27:44.436,-1.71779,-1.03921,0.00896203,0,0,0
 16:27:44.446,-1.71776,-1.04047,0.00902748,0,0,0
 16:27:44.456,-1.71724,-1.04187,0.00826559,0,0,0
 16:27:44.466,-1.71704,-1.0427,0.00564738,0,0,0
 16:27:44.475,-1.71705,-1.04436,0.00490103,0,0,0
 16:27:44.486,-1.7184,-1.04596,0.00339852,0,0,0
 16:27:44.496,-1.71901,-1.0465,0.00210776,0,0,0
 16:27:44.506,-1.71878,-1.04567,0.000282044,0,0,0
 16:27:44.516,-1.71988,-1.04535,-0.000999089,0,0,0
 16:27:44.525,-1.72044,-1.04751,-0.0017149,0,0,0
 16:27:44.535,-1.71992,-1.04874,-0.0037995,0,0,0
 16:27:44.546,-1.72044,-1.05086,-0.00400741,0,0,0
 16:27:44.556,-1.72071,-1.05134,-0.00425467,0,0,0
 16:27:44.565,-1.71886,-1.05124,-0.006392,0,0,0
 16:27:44.576,-1.71811,-1.05137,-0.0090296,0,0,0
 16:27:44.586,-1.71866,-1.05131,-0.0100521,0,0,0
 16:27:44.595,-1.71924,-1.05173,-0.0113447,0,0,0
 16:27:44.606,-1.72012,-1.05081,-0.0129193,0,0,0
 16:27:44.616,-1.71928,-1.04946,-0.013984,0,0,0
 16:27:44.625,-1.7182,-1.05054,-0.0158194,0,0,0
 16:27:44.635,-1.71921,-1.05024,-0.0176137,0,0,0
 16:27:44.648,-1.72031,-1.05145,-0.0199399,0,0,0
 16:27:44.656,-1.72086,-1.05249,-0.0204253,0,0,0
 16:27:44.666,-1.71975,-1.05379,-0.0204107,0,0,0
 16:27:44.676,-1.72001,-1.05611,-0.0216925,0,0,0
 16:27:44.686,-1.71919,-1.05755,-0.0222217,0,0,0
 16:27:44.695,-1.71888,-1.05724,-0.0227314,0,0,0
 16:27:44.705,-1.71886,-1.05874,-0.0227159,0,0,0
 16:27:44.715,-1.71939,-1.05913,-0.0247916,0,0,0
 16:27:44.725,-1.71918,-1.05893,-0.0279519,0,0,0
 16:27:44.736,-1.72005,-1.06007,-0.0321255,0,0,0
 16:27:44.746,-1.7206,-1.06073,-0.0328836,0,0,0
 16:27:44.756,-1.72117,-1.06115,-0.0346921,0,0,0
 16:27:44.766,-1.7201,-1.06043,-0.0375982,0,0,0
 16:27:44.776,-1.72096,-1.06127,-0.0404794,0,0,0
 16:27:44.786,-1.7218,-1.06032,-0.0428304,0,0,0
 16:27:44.796,-1.72051,-1.06102,-0.0459761,0,0,0
 16:27:44.806,-1.7197,-1.06116,-0.0478097,0,0,0
 16:27:44.816,-1.72027,-1.0621,-0.0493584,0,0,0
 16:27:44.825,-1.71927,-1.06346,-0.0514947,0,0,0
 16:27:44.836,-1.71799,-1.06377,-0.0530953,0,0,0
 16:27:44.846,-1.71752,-1.06429,-0.0549414,0,0,0
 16:27:44.856,-1.71762,-1.06481,-0.0567876,0,0,0
 16:27:44.866,-1.7173,-1.06492,-0.0578025,0,0,0
 16:27:44.876,-1.71766,-1.06605,-0.058549,0,0,0
 16:27:44.885,-1.71826,-1.06585,-0.0608892,0,0,0
 16:27:44.896,-1.71743,-1.06832,-0.0608744,0,0,0
 16:27:44.905,-1.71781,-1.06969,-0.0632028,0,0,0
 16:27:44.915,-1.71727,-1.06951,-0.0642339,0,0,0
 16:27:44.925,-1.71787,-1.06821,-0.0655315,0,0,0
 16:27:44.936,-1.71758,-1.07035,-0.0668283,0,0,0
 16:27:44.946,-1.71628,-1.07064,-0.0692051,0,0,0
 16:27:44.956,-1.71529,-1.07119,-0.0713236,0,0,0
 16:27:44.966,-1.71664,-1.07102,-0.0725702,0,0,0
 16:27:44.975,-1.71587,-1.07235,-0.0723239,0,0,0
 16:27:44.985,-1.71682,-1.07335,-0.0757209,0,0,0
 16:27:44.995,-1.71624,-1.07348,-0.075416,0,0,0
 16:27:45.005,-1.71708,-1.07498,-0.076704,0,0,0
 16:27:45.016,-1.71635,-1.07409,-0.0801392,0,0,0
 16:27:45.026,-1.71694,-1.07454,-0.0811682,0,0,0
 16:27:45.035,-1.71687,-1.07508,-0.0824589,0,0,0
 16:27:45.046,-1.71687,-1.07252,-0.0842889,0,0,0
 16:27:45.056,-1.71687,-1.07397,-0.0858243,0,0,0
 16:27:45.066,-1.71639,-1.0748,-0.0884298,0,0,0
 16:27:45.075,-1.71619,-1.07482,-0.0899869,0,0,0
 16:27:45.086,-1.71704,-1.07422,-0.0931221,0,0,0
 16:27:45.096,-1.71734,-1.07375,-0.0933592,0,0,0
 16:27:45.105,-1.71722,-1.07451,-0.0965163,0,0,0
 16:27:45.116,-1.71673,-1.07333,-0.0991528,0,0,0
 16:27:45.126,-1.71649,-1.07275,-0.101257,0,0,0
 16:27:45.136,-1.71602,-1.07158,-0.103914,0,0,0
 16:27:45.146,-1.71554,-1.07043,-0.10657,0,0,0
 16:27:45.156,-1.71717,-1.06834,-0.107048,0,0,0
 16:27:45.166,-1.71746,-1.06817,-0.108074,0,0,0
 16:27:45.176,-1.71622,-1.06746,-0.109399,0,0,0
 16:27:45.186,-1.71657,-1.06615,-0.11284,0,0,0
 16:27:45.196,-1.71662,-1.06569,-0.116518,0,0,0
 16:27:45.206,-1.71655,-1.06541,-0.116461,0,0,0
 16:27:45.216,-1.7166,-1.06388,-0.118288,0,0,0
 16:27:45.226,-1.71714,-1.06192,-0.119304,0,0,0
 16:27:45.236,-1.71686,-1.06073,-0.121395,0,0,0
 16:27:45.246,-1.71714,-1.0604,-0.122426,0,0,0
 16:27:45.256,-1.71694,-1.05992,-0.124803,0,0,0
 16:27:45.266,-1.71676,-1.05964,-0.127992,0,0,0
 16:27:45.276,-1.71684,-1.06025,-0.13139,0,0,0
 16:27:45.286,-1.71562,-1.05812,-0.131397,0,0,0
 16:27:45.296,-1.71695,-1.05775,-0.131607,0,0,0
 16:27:45.306,-1.71748,-1.05882,-0.133163,0,0,0
 16:27:45.316,-1.71855,-1.05888,-0.135741,0,0,0
 16:27:45.326,-1.71759,-1.06006,-0.137346,0,0,0
 16:27:45.336,-1.71688,-1.0623,-0.139421,0,0,0
 16:27:45.345,-1.71641,-1.06363,-0.141267,0,0,0
 16:27:45.355,-1.71623,-1.06312,-0.144186,0,0,0
 16:27:45.366,-1.71653,-1.06424,-0.145731,0,0,0
 16:27:45.376,-1.71574,-1.06405,-0.145749,0,0,0
 16:27:45.386,-1.71582,-1.06478,-0.147333,0,0,0
 16:27:45.396,-1.71646,-1.06451,-0.152563,0,0,0
 16:27:45.406,-1.71572,-1.06555,-0.154415,0,0,0
 16:27:45.416,-1.71602,-1.0669,-0.156491,0,0,0
 16:27:45.426,-1.71663,-1.06783,-0.158856,0,0,0
 16:27:45.435,-1.7178,-1.06874,-0.161221,0,0,0
 16:27:45.446,-1.71779,-1.06842,-0.161999,0,0,0
 16:27:45.456,-1.71733,-1.06891,-0.163846,0,0,0
 16:27:45.465,-1.71737,-1.06858,-0.164901,0,0,0
 16:27:45.475,-1.71778,-1.06905,-0.168324,0,0,0
 16:27:45.486,-1.7178,-1.06984,-0.169632,0,0,0
 16:27:45.496,-1.71756,-1.06939,-0.170387,0,0,0
 16:27:45.505,-1.71762,-1.06931,-0.172485,0,0,0
 16:27:45.516,-1.71979,-1.07017,-0.174509,0,0,0
 16:27:45.526,-1.72053,-1.06911,-0.174743,0,0,0
 16:27:45.535,-1.7213,-1.06951,-0.177878,0,0,0
 16:27:45.545,-1.72104,-1.06841,-0.180241,0,0,0
 16:27:45.556,-1.72241,-1.06764,-0.183618,0,0,0
 16:27:45.566,-1.72286,-1.06669,-0.184375,0,0,0
 16:27:45.575,-1.72304,-1.06636,-0.186674,0,0,0
 16:27:45.586,-1.7224,-1.06407,-0.188512,0,0,0
 16:27:45.596,-1.72296,-1.06315,-0.190338,0,0,0
 16:27:45.606,-1.7227,-1.06354,-0.191119,0,0,0
 16:27:45.616,-1.7227,-1.06262,-0.190612,0,0,0
 16:27:45.626,-1.72354,-1.06317,-0.193754,0,0,0
 16:27:45.635,-1.72275,-1.06227,-0.195847,0,0,0
 16:27:45.646,-1.72434,-1.0628,-0.197914,0,0,0
 16:27:45.655,-1.72573,-1.06255,-0.200504,0,0,0
 16:27:45.666,-1.72406,-1.06272,-0.201524,0,0,0
 16:27:45.676,-1.72244,-1.06109,-0.203657,0,0,0
 16:27:45.686,-1.72253,-1.0603,-0.205536,0,0,0
 16:27:45.696,-1.72228,-1.06195,-0.206596,0,0,0
 16:27:45.706,-1.72326,-1.06093,-0.208151,0,0,0
 16:27:45.716,-1.72431,-1.05994,-0.210234,0,0,0
 16:27:45.725,-1.72593,-1.05896,-0.212316,0,0,0
 16:27:45.736,-1.72619,-1.06052,-0.216781,0,0,0
 16:27:45.745,-1.7265,-1.05872,-0.219147,0,0,0
 16:27:45.756,-1.72679,-1.05991,-0.219926,0,0,0
 16:27:45.766,-1.72677,-1.05942,-0.221772,0,0,0
 16:27:45.776,-1.72541,-1.05901,-0.225184,0,0,0
 16:27:45.786,-1.72365,-1.06056,-0.224381,0,0,0
 16:27:45.796,-1.72284,-1.06061,-0.22678,0,0,0
 16:27:45.806,-1.72295,-1.06109,-0.230752,0,0,0
 16:27:45.816,-1.7216,-1.06207,-0.232579,0,0,0
 16:27:45.826,-1.72096,-1.06243,-0.232593,0,0,0
 16:27:45.836,-1.72265,-1.06201,-0.234918,0,0,0
 16:27:45.846,-1.72232,-1.06341,-0.235682,0,0,0
 16:27:45.855,-1.72204,-1.06403,-0.238297,0,0,0
 16:27:45.866,-1.72223,-1.06609,-0.236913,0,0,0
 16:27:45.876,-1.72225,-1.06637,-0.239264,0,0,0
 16:27:45.886,-1.72281,-1.06658,-0.240058,0,0,0
 16:27:45.896,-1.72387,-1.06503,-0.241092,0,0,0
 16:27:45.906,-1.72383,-1.06393,-0.243207,0,0,0
 16:27:45.916,-1.72433,-1.06194,-0.245283,0,0,0
 16:27:45.926,-1.72446,-1.06271,-0.245227,0,0,0
 16:27:45.936,-1.72546,-1.06205,-0.246243,0,0,0
 16:27:45.946,-1.72568,-1.06012,-0.246754,0,0,0
 16:27:45.956,-1.72486,-1.06184,-0.248586,0,0,0
 16:27:45.966,-1.72616,-1.06164,-0.251449,0,0,0
 16:27:45.975,-1.72668,-1.06167,-0.253542,0,0,0
 16:27:45.985,-1.72686,-1.06146,-0.25459,0,0,0
 16:27:45.996,-1.72573,-1.06197,-0.256734,0,0,0
 16:27:46.006,-1.72462,-1.06248,-0.258877,0,0,0
 16:27:46.016,-1.72352,-1.06298,-0.261021,0,0,0
 16:27:46.026,-1.72344,-1.06406,-0.262328,0,0,0
 16:27:46.036,-1.72362,-1.06288,-0.26256,0,0,0
 16:27:46.045,-1.72302,-1.06298,-0.263589,0,0,0
 16:27:46.056,-1.72201,-1.06356,-0.267538,0,0,0
 16:27:46.066,-1.72105,-1.0639,-0.271757,0,0,0
 16:27:46.076,-1.72049,-1.06519,-0.273847,0,0,0
 16:27:46.086,-1.72147,-1.06397,-0.274046,0,0,0
 16:27:46.096,-1.72129,-1.06193,-0.275103,0,0,0
 16:27:46.106,-1.72421,-1.06186,-0.278786,0,0,0
 16:27:46.116,-1.72765,-1.06444,-0.28084,0,0,0
 16:27:46.125,-1.72903,-1.06455,-0.28101,0,0,0
 16:27:46.136,-1.72723,-1.06172,-0.282615,0,0,0
 16:27:46.146,-1.72791,-1.06007,-0.283637,0,0,0
 16:27:46.155,-1.72876,-1.05989,-0.284943,0,0,0
 16:27:46.165,-1.7266,-1.05783,-0.287353,0,0,0
 16:27:46.176,-1.72655,-1.05892,-0.289712,0,0,0
 16:27:46.186,-1.72672,-1.05897,-0.290472,0,0,0
 16:27:46.196,-1.72619,-1.05797,-0.292583,0,0,0
 16:27:46.206,-1.72627,-1.05833,-0.294173,0,0,0
 16:27:46.216,-1.72689,-1.05965,-0.296249,0,0,0
 16:27:46.225,-1.72726,-1.05905,-0.295945,0,0,0
 16:27:46.235,-1.72672,-1.05861,-0.299359,0,0,0
 16:27:46.246,-1.72678,-1.05818,-0.302271,0,0,0
 16:27:46.256,-1.7267,-1.05828,-0.304366,0,0,0
 16:27:46.266,-1.72708,-1.05821,-0.303795,0,0,0
 16:27:46.276,-1.72701,-1.05751,-0.303806,0,0,0
 16:27:46.286,-1.72674,-1.05815,-0.304602,0,0,0
 16:27:46.296,-1.72807,-1.05749,-0.306939,0,0,0
 16:27:46.305,-1.72996,-1.05683,-0.309275,0,0,0
 16:27:46.316,-1.73034,-1.05762,-0.310294,0,0,0
 16:27:46.326,-1.73156,-1.05671,-0.312614,0,0,0
 16:27:46.335,-1.73198,-1.05708,-0.313125,0,0,0
 16:27:46.346,-1.73243,-1.05587,-0.314967,0,0,0
 16:27:46.355,-1.73384,-1.0568,-0.315183,0,0,0
 16:27:46.365,-1.73347,-1.05561,-0.317292,0,0,0
 16:27:46.375,-1.73523,-1.05524,-0.318822,0,0,0
 16:27:46.386,-1.73694,-1.0554,-0.320092,0,0,0
 16:27:46.396,-1.73806,-1.05579,-0.323716,0,0,0
 16:27:46.406,-1.73762,-1.05593,-0.324505,0,0,0
 16:27:46.416,-1.7369,-1.05558,-0.326329,0,0,0
 16:27:46.426,-1.73699,-1.05557,-0.327087,0,0,0
 16:27:46.436,-1.736,-1.05482,-0.327588,0,0,0
 16:27:46.446,-1.73766,-1.05521,-0.33123,0,0,0
 16:27:46.456,-1.73769,-1.05595,-0.332503,0,0,0
 16:27:46.465,-1.73778,-1.05595,-0.333244,0,0,0
 16:27:46.476,-1.73756,-1.05693,-0.334279,0,0,0
 16:27:46.486,-1.73758,-1.0563,-0.335057,0,0,0
 16:27:46.496,-1.73701,-1.05484,-0.335862,0,0,0
 16:27:46.506,-1.73554,-1.05747,-0.336365,0,0,0
 16:27:46.516,-1.73595,-1.05673,-0.337927,0,0,0
 16:27:46.526,-1.73584,-1.05804,-0.341342,0,0,0
 16:27:46.536,-1.73511,-1.05971,-0.34185,0,0,0
 16:27:46.546,-1.73466,-1.06351,-0.342884,0,0,0
 16:27:46.556,-1.73589,-1.06671,-0.343657,0,0,0
 16:27:46.566,-1.73615,-1.06606,-0.341071,0,0,0
 16:27:46.576,-1.73544,-1.0689,-0.334616,0,0,0
 16:27:46.586,-1.73461,-1.0716,-0.333169,0,0,0
 16:27:46.596,-1.73436,-1.07427,-0.331724,0,0,0
 16:27:46.606,-1.73421,-1.07198,-0.333283,0,0,0
 16:27:46.615,-1.73369,-1.07061,-0.333511,0,0,0
 16:27:46.625,-1.73302,-1.06843,-0.335342,0,0,0
 16:27:46.636,-1.73499,-1.06622,-0.338182,0,0,0
 16:27:46.646,-1.7359,-1.06507,-0.33973,0,0,0
 16:27:46.655,-1.73562,-1.06595,-0.342859,0,0,0
 16:27:46.665,-1.72972,-1.07026,-0.343721,0,0,0
 16:27:46.676,-1.7331,-1.0571,-0.346431,0,0,0
 16:27:46.686,-1.7322,-1.05494,-0.350542,0,0,0
 16:27:46.696,-1.73205,-1.04809,-0.354224,0,0,0
 16:27:46.706,-1.73365,-1.04661,-0.357591,0,0,0
 16:27:46.716,-1.73315,-1.04147,-0.36017,0,0,0
 16:27:46.726,-1.73526,-1.03733,-0.360694,0,0,0
 16:27:46.736,-1.7352,-1.04072,-0.364033,0,0,0
 16:27:46.745,-1.73574,-1.05345,-0.371707,0,0,0
 16:27:46.756,-1.73653,-1.0509,-0.376613,0,0,0
 16:27:46.766,-1.73529,-1.05286,-0.378214,0,0,0
 16:27:46.776,-1.73463,-1.05882,-0.379573,0,0,0
 16:27:46.786,-1.73373,-1.06664,-0.378849,0,0,0
 16:27:46.795,-1.73305,-1.07294,-0.370634,0,0,0
 16:27:46.806,-1.73319,-1.07764,-0.364499,0,0,0
 16:27:46.816,-1.73173,-1.08037,-0.359452,0,0,0
 16:27:46.826,-1.72987,-1.08576,-0.355704,0,0,0
 16:27:46.836,-1.72888,-1.08737,-0.35459,0,0,0
 16:27:46.846,-1.72963,-1.08579,-0.358439,0,0,0
 16:27:46.856,-1.72978,-1.08127,-0.361317,0,0,0
 16:27:46.866,-1.72984,-1.07478,-0.3613,0,0,0
 16:27:46.876,-1.73103,-1.06904,-0.364162,0,0,0
 16:27:46.886,-1.73278,-1.06337,-0.367023,0,0,0
 16:27:46.896,-1.73363,-1.05976,-0.368297,0,0,0
 16:27:46.906,-1.73365,-1.05319,-0.37191,0,0,0
 16:27:46.916,-1.73395,-1.05416,-0.379606,0,0,0
 16:27:46.926,-1.73517,-1.04745,-0.391053,0,0,0
 16:27:46.936,-1.73516,-1.04422,-0.400139,0,0,0
 16:27:46.946,-1.73581,-1.04496,-0.403768,0,0,0
 16:27:46.956,-1.73651,-1.04475,-0.410246,0,0,0
 16:27:46.966,-1.73684,-1.04663,-0.421702,0,0,0
 16:27:46.976,-1.73704,-1.04414,-0.440582,0,0,0
 16:27:46.986,-1.73758,-1.04142,-0.46164,0,0,0
 16:27:46.996,-1.73167,-1.03858,-0.486079,0,0,0
 16:27:47.006,-1.71834,-1.06759,-0.531517,0,0,0
 16:27:47.016,-1.72469,-1.20767,-0.731596,0,0,0
 16:27:47.026,-1.74621,-1.25611,-1.00853,0,0,0
 16:27:47.036,-1.7467,-1.12352,-1.26216,0,0,0
 16:27:47.045,-1.75069,-1.09295,-1.36831,0,0,0
 16:27:47.056,-1.73007,-1.05347,-1.43068,0,0,0
 16:27:47.065,-1.76072,-1.02344,-1.44866,0,0,0
 16:27:47.075,-1.76146,-0.965081,-1.37245,0,0,0
 16:27:47.085,-1.77529,-0.980131,-1.14971,0,0,0
 16:27:47.096,-1.81826,-0.942817,-0.913763,0,0,0
 16:27:47.106,-1.77302,-0.933824,-0.685175,0,0,0
 16:27:47.116,-1.83222,-0.973667,-0.359704,0,0,0
 16:27:47.125,-1.8229,-0.985955,-0.172787,0,0,0
 16:27:47.136,-1.83904,-1.00793,0.0320588,0,0,0
 16:27:47.146,-1.86265,-1.02466,0.188002,0,0,0
 16:27:47.156,-1.89112,-0.989336,0.332159,0,0,0
 16:27:47.166,-1.91889,-0.954434,0.476299,0,0,0
 16:27:47.175,-2.04689,-0.946951,0.794923,0,0,0
 16:27:47.185,-2.04616,-0.958359,1.10832,0,0,0
 16:27:47.196,-2.1386,-0.981567,1.33849,0,0,0
 16:27:47.206,-2.25569,-0.947141,1.5706,0,0,0
 16:27:47.216,-2.27047,-0.770556,1.8112,0,0,0
 16:27:47.226,-2.29991,-0.759492,2.14132,0,0,0
 16:27:47.235,-2.32985,-1.03475,2.38933,0,0,0
 16:27:47.246,-2.47357,-1.30857,2.31873,0,0,0
 16:27:47.256,-2.57994,-1.4604,2.1914,0,0,0
 16:27:47.266,-2.58671,-1.52307,2.17023,0,0,0
 16:27:47.276,-2.52875,-1.49975,2.2131,0,0,0
 16:27:47.286,-2.45477,-1.4044,2.24649,0,0,0
 16:27:47.296,-2.37192,-1.27014,2.27148,0,0,0
 16:27:47.306,-2.28383,-1.11739,2.29026,0,0,0
 16:27:47.316,-2.19479,-0.955922,2.31059,0,0,0
 16:27:47.326,-2.12061,-0.806252,2.32947,0,0,0
 16:27:47.336,-2.06524,-0.688592,2.34683,0,0,0
 16:27:47.346,-2.03249,-0.636173,2.3973,0,0,0
 16:27:47.356,-2.01112,-0.635063,2.44737,0,0,0
 16:27:47.366,-2.00195,-0.665941,2.45015,0,0,0
 16:27:47.376,-1.9963,-0.708345,2.42396,0,0,0
 16:27:47.386,-1.99929,-0.714352,2.39623,0,0,0
 16:27:47.396,-1.99087,-0.666079,2.40127,0,0,0
 16:27:47.406,-1.9634,-0.588121,2.4374,0,0,0
 16:27:47.416,-1.92616,-0.498558,2.4705,0,0,0
 16:27:47.426,-1.89018,-0.389634,2.50064,0,0,0
 16:27:47.436,-1.84689,-0.244935,2.54002,0,0,0
 16:27:47.446,-1.79643,-0.0957494,2.59016,0,0,0
 16:27:47.456,-1.76158,0.0519757,2.64048,0,0,0
 16:27:47.466,-1.74549,0.193558,2.70104,0,0,0
 16:27:47.476,-1.75963,0.322046,2.73483,0,0,0
 16:27:47.486,-1.79573,0.417018,2.75371,0,0,0
 16:27:47.495,-1.84082,0.493554,2.77477,0,0,0
 16:27:47.506,-1.88164,0.563484,2.78331,0,0,0
 16:27:47.516,-1.87754,0.667526,2.78458,0,0,0
 16:27:47.525,-1.83239,0.762996,2.79202,0,0,0
 16:27:47.536,-1.79407,0.898834,2.80681,0,0,0
 16:27:47.546,-1.76208,1.0257,2.82357,0,0,0
 16:27:47.556,-1.74626,1.16395,2.82253,0,0,0
 16:27:47.566,-1.73658,1.3011,2.80822,0,0,0
 16:27:47.576,-1.71579,1.4173,2.78805,0,0,0
 16:27:47.586,-1.6975,1.50947,2.76116,0,0,0
 16:27:47.596,-1.68982,1.6054,2.74522,0,0,0
 16:27:47.606,-1.67132,1.7178,2.75129,0,0,0
 16:27:47.616,-1.64639,1.85702,2.76225,0,0,0
 16:27:47.625,-1.56827,1.78487,2.75125,0,0,0
 16:27:47.635,-1.41074,1.72193,2.69743,0,0,0
 16:27:47.646,-1.21626,1.70898,2.6436,0,0,0
 16:27:47.655,-1.01188,1.5248,2.62187,0,0,0
 16:27:47.666,-0.895929,1.4707,2.55495,0,0,0
 16:27:47.676,-0.856289,1.50378,2.49636,0,0,0
 16:27:47.686,-0.804661,1.47841,2.49141,0,0,0
 16:27:47.696,-0.789832,1.51149,2.47579,0,0,0
 16:27:47.706,-0.854716,1.60033,2.45218,0,0,0
 16:27:47.716,-0.935054,1.64428,2.4441,0,0,0
 16:27:47.726,-0.994583,1.66969,2.43725,0,0,0
 16:27:47.736,-1.03322,1.69782,2.43188,0,0,0
 16:27:47.746,-1.08331,1.72568,2.42649,0,0,0
 16:27:47.756,-1.04903,1.75562,2.45728,0,0,0
 16:27:47.766,-1.05372,1.76845,2.48471,0,0,0
 16:27:47.776,-1.07861,1.72571,2.48797,0,0,0
 16:27:47.786,-1.10349,1.68328,2.45796,0,0,0
 16:27:47.796,-1.13784,1.63094,2.4138,0,0,0
 16:27:47.806,-1.19306,1.55888,2.37343,0,0,0
 16:27:47.816,-1.25849,1.50437,2.36178,0,0,0
 16:27:47.826,-1.32251,1.4606,2.36267,0,0,0
 16:27:47.836,-1.3772,1.43874,2.34277,0,0,0
 16:27:47.846,-1.41811,1.42242,2.31183,0,0,0
 16:27:47.856,-1.45154,1.40266,2.28573,0,0,0
 16:27:47.866,-1.48694,1.3755,2.28352,0,0,0
 16:27:47.876,-1.54104,1.33869,2.33704,0,0,0
 16:27:47.886,-1.62158,1.29385,2.41661,0,0,0
 16:27:47.896,-1.70762,1.24943,2.49685,0,0,0
 16:27:47.906,-1.77216,1.21828,2.567,0,0,0
 16:27:47.916,-1.80502,1.19675,2.63482,0,0,0
 16:27:47.926,-1.81973,1.1641,2.69762,0,0,0
 16:27:47.936,-1.83092,1.12452,2.74,0,0,0
 16:27:47.946,-1.83987,1.09884,2.74656,0,0,0
 16:27:47.956,-1.84411,1.10893,2.73242,0,0,0
 16:27:47.965,-1.83606,1.15091,2.72896,0,0,0
 16:27:47.975,-1.82116,1.23024,2.75027,0,0,0
 16:27:47.986,-1.80281,1.29876,2.78278,0,0,0
 16:27:47.996,-1.7674,1.32985,2.7928,0,0,0
 16:27:48.006,-1.73819,1.42007,2.77682,0,0,0
 16:27:48.016,-1.68402,1.44064,2.77697,0,0,0
 16:27:48.025,-1.63076,1.45578,2.77203,0,0,0
 16:27:48.036,-1.61768,1.47074,2.76711,0,0,0
 16:27:48.045,-1.63527,1.47406,2.72405,0,0,0
 16:27:48.056,-1.66183,1.49823,2.70009,0,0,0
 16:27:48.066,-1.68155,1.50557,2.707,0,0,0
 16:27:48.076,-1.68922,1.48544,2.71634,0,0,0
 16:27:48.086,-1.69318,1.44206,2.69654,0,0,0
 16:27:48.096,-1.68565,1.3791,2.64225,0,0,0
 16:27:48.105,-1.66128,1.37405,2.56718,0,0,0
 16:27:48.115,-1.62911,1.38237,2.49214,0,0,0
 16:27:48.126,-1.60232,1.38564,2.41584,0,0,0
 16:27:48.136,-1.5611,1.38141,2.3469,0,0,0
 16:27:48.146,-1.54577,1.34266,2.30126,0,0,0
 16:27:48.156,-1.557,1.31431,2.21067,0,0,0
 16:27:48.166,-1.66589,1.34932,2.12921,0,0,0
 16:27:48.175,-1.67411,1.32741,2.11393,0,0,0
 16:27:48.186,-1.59086,1.33853,2.06215,0,0,0
 16:27:48.196,-1.49653,1.37749,2.01673,0,0,0
 16:27:48.206,-1.37706,1.41862,2.07044,0,0,0
 16:27:48.216,-1.19973,1.48058,2.17483,0,0,0
 16:27:48.226,-0.93106,1.47666,2.25237,0,0,0
 16:27:48.236,-0.758136,1.36277,2.12034,0,0,0
 16:27:48.246,-0.799314,1.29549,1.81234,0,0,0
 16:27:48.256,-0.91143,1.29673,1.63734,0,0,0
 16:27:48.266,-0.899698,1.35275,1.62813,0,0,0
 16:27:48.276,-0.814518,1.35069,1.59557,0,0,0
 16:27:48.286,-0.73838,1.33687,1.46284,0,0,0
 16:27:48.296,-0.698283,1.2575,1.31467,0,0,0
 16:27:48.306,-0.663632,1.27751,1.22088,0,0,0
 16:27:48.316,-0.59846,1.21083,1.16113,0,0,0
 16:27:48.325,-0.522332,1.14476,1.1013,0,0,0
 16:27:48.336,-0.451581,1.12222,0.977225,0,0,0
 16:27:48.345,-0.358291,1.19681,0.89571,0,0,0
 16:27:48.355,-0.255025,1.30364,0.879465,0,0,0
 16:27:48.366,-0.15126,1.43777,0.898292,0,0,0
 16:27:48.376,-0.0437208,1.51109,0.932388,0,0,0
 16:27:48.385,0.0441545,1.59003,0.964006,0,0,0
 16:27:48.396,0.131205,1.64663,0.996848,0,0,0
 16:27:48.406,0.206975,1.67281,1.01304,0,0,0
 16:27:48.416,0.265929,1.6866,1.01969,0,0,0
 16:27:48.426,0.2864,1.69687,1.03632,0,0,0
 16:27:48.436,0.285866,1.7065,1.05522,0,0,0
 16:27:48.446,0.201878,1.74302,1.08812,0,0,0
 16:27:48.456,0.10646,1.78608,1.14321,0,0,0
 16:27:48.466,-0.051729,1.79341,1.18594,0,0,0
 16:27:48.476,-0.210579,1.76288,1.21308,0,0,0
 16:27:48.485,-0.364024,1.76243,1.25336,0,0,0
 16:27:48.496,-0.547787,1.83149,1.31226,0,0,0
 16:27:48.506,-0.785285,1.98369,1.38124,0,0,0
 16:27:48.516,-1.02024,2.17583,1.5483,0,0,0
 16:27:48.526,-1.22485,2.32625,1.89854,0,0,0
 16:27:48.536,-1.41286,2.39825,2.46932,0,0,0
 16:27:48.546,-1.60911,2.38222,3.13964,0,0,0
 16:27:48.555,-1.85598,2.33935,3.74899,0,0,0
 16:27:48.566,-2.14414,2.31185,4.23518,0,0,0
 16:27:48.576,-2.41693,2.31473,4.60053,0,0,0
 16:27:48.587,-2.6454,2.3715,4.84887,0,0,0
 16:27:48.596,-2.80694,2.37015,4.99464,0,0,0
 16:27:48.605,-2.92824,2.27355,5.04392,0,0,0
 16:27:48.616,-3.05306,2.17781,5.0935,0,0,0
 16:27:48.626,-3.14587,1.90252,4.89224,0,0,0
 16:27:48.636,-3.22388,1.54094,4.68117,0,0,0
 16:27:48.646,-3.29977,1.1681,4.4651,0,0,0
 16:27:48.656,-3.37647,0.857924,4.23814,0,0,0
 16:27:48.666,-3.4424,0.66274,4.00985,0,0,0
 16:27:48.676,-3.47066,0.580654,3.80137,0,0,0
 16:27:48.685,-3.45626,0.585718,3.62401,0,0,0
 16:27:48.696,-3.40901,0.65683,3.48408,0,0,0
 16:27:48.706,-3.33102,0.776002,3.40927,0,0,0
 16:27:48.715,-3.22126,0.941285,3.44137,0,0,0
 16:27:48.726,-3.09268,1.09303,3.5732,0,0,0
 16:27:48.736,-2.96283,1.16298,3.75906,0,0,0
 16:27:48.746,-2.86464,1.15704,3.98504,0,0,0
 16:27:48.756,-2.82328,1.1168,4.23315,0,0,0
 16:27:48.766,-2.82585,1.09542,4.46988,0,0,0
 16:27:48.775,-2.84734,1.11991,4.6853,0,0,0
 16:27:48.786,-2.87453,1.09653,4.90873,0,0,0
 16:27:48.795,-2.9566,1.02138,5.13945,0,0,0
 16:27:48.806,-3.05042,1.04914,5.42735,0,0,0
 16:27:48.816,-3.19414,1.09163,5.76975,0,0,0
 16:27:48.826,-3.33908,0.787974,6.10188,0,0,0
 16:27:48.836,-3.29438,0.481295,6.41508,0,0,0
 16:27:48.846,-3.24691,0.344978,6.7596,0,0,0
 16:27:48.856,-3.15847,0.423982,7.22817,0,0,0
 16:27:48.866,-3.05733,0.505278,7.85432,0,0,0
 16:27:48.876,-2.99848,0.524736,8.60909,0,0,0
 16:27:48.886,-2.97904,0.476474,9.42231,0,0,0
 16:27:48.896,-2.9982,0.401875,10.2205,0,0,0
 16:27:48.906,-2.99814,0.32774,11.0188,0,0,0
 16:27:48.915,-3.08875,0.264768,11.6662,0,0,0
 16:27:48.926,-3.23551,0.195097,12.2568,0,0,0
 16:27:48.936,-3.40288,0.102815,12.8028,0,0,0
 16:27:48.946,-3.54791,-0.00548289,13.287,0,0,0
 16:27:48.956,-3.65379,-0.0678844,13.7017,0,0,0
 16:27:48.966,-3.7391,-0.0927106,14.0618,0,0,0
 16:27:48.976,-3.82925,-0.0655685,14.3937,0,0,0
 16:27:48.986,-3.94118,0.0308419,14.732,0,0,0
 16:27:48.996,-4.08787,0.160889,15.1283,0,0,0
 16:27:49.006,-4.29774,0.318559,15.6,0,0,0
 16:27:49.016,-4.56082,0.434004,16.1338,0,0,0
 16:27:49.026,-4.82683,0.453002,16.6969,0,0,0
 16:27:49.036,-5.04693,0.370573,17.2641,0,0,0
 16:27:49.045,-5.18972,0.221305,17.8003,0,0,0
 16:27:49.056,-5.26918,0.0707692,18.3249,0,0,0
 16:27:49.065,-5.30514,-0.0500929,18.8729,0,0,0
 16:27:49.076,-5.32724,-0.0914144,19.4873,0,0,0
 16:27:49.085,-5.35426,-0.166482,20.1908,0,0,0
 16:27:49.095,-5.38149,-0.319008,20.939,0,0,0
 16:27:49.105,-5.41125,-0.529891,21.6633,0,0,0
 16:27:49.116,-5.44397,-0.736295,22.3083,0,0,0
 16:27:49.125,-5.486,-0.868826,22.8594,0,0,0
 16:27:49.136,-5.52651,-0.956782,23.3515,0,0,0
 16:27:49.146,-5.59164,-1.05417,23.8317,0,0,0
 16:27:49.156,-5.71354,-1.20207,24.3273,0,0,0
 16:27:49.166,-5.90041,-1.36515,24.8392,0,0,0
 16:27:49.176,-6.15444,-1.50401,25.359,0,0,0
 16:27:49.186,-6.44687,-1.63415,25.8799,0,0,0
 16:27:49.196,-6.74115,-1.76573,26.4014,0,0,0
 16:27:49.206,-6.98763,-1.9139,26.9714,0,0,0
 16:27:49.216,-7.17802,-2.06375,27.6214,0,0,0
 16:27:49.226,-7.34252,-2.19196,28.3249,0,0,0
 16:27:49.236,-7.50039,-2.30883,29.0427,0,0,0
 16:27:49.246,-7.65815,-2.39621,29.7421,0,0,0
 16:27:49.256,-7.80205,-2.52235,30.4155,0,0,0
 16:27:49.266,-7.88346,-2.66272,31.0726,0,0,0
 16:27:49.276,-7.93981,-2.81093,31.7266,0,0,0
 16:27:49.286,-7.99539,-2.97922,32.3959,0,0,0
 16:27:49.296,-8.0678,-3.1475,33.066,0,0,0
 16:27:49.306,-8.16504,-3.33987,33.7108,0,0,0
 16:27:49.316,-8.24498,-3.54531,34.3093,0,0,0
 16:27:49.326,-8.30035,-3.72238,34.8683,0,0,0
 16:27:49.336,-8.34462,-3.87598,35.4377,0,0,0
 16:27:49.346,-8.38152,-4.02455,36.0521,0,0,0
 16:27:49.356,-8.41228,-4.11388,36.7274,0,0,0
 16:27:49.366,-8.42888,-4.19761,37.4623,0,0,0
 16:27:49.376,-8.38107,-4.33493,38.192,0,0,0
 16:27:49.386,-8.25039,-4.46953,38.8615,0,0,0
 16:27:49.396,-8.03004,-4.52261,39.5113,0,0,0
 16:27:49.406,-7.78419,-4.50604,40.2288,0,0,0
 16:27:49.415,-7.58589,-4.53922,41.0349,0,0,0
 16:27:49.426,-7.46208,-4.63786,41.8628,0,0,0
 16:27:49.436,-7.42269,-4.74913,42.6312,0,0,0
 16:27:49.446,-7.51373,-4.8801,43.2831,0,0,0
 16:27:49.455,-7.73369,-4.98674,43.7998,0,0,0
 16:27:49.465,-8.05053,-5.06439,44.2105,0,0,0
 16:27:49.476,-8.39435,-5.08543,44.5468,0,0,0
 16:27:49.485,-8.73461,-5.1083,44.8837,0,0,0
 16:27:49.496,-9.08069,-5.13292,45.2211,0,0,0
 16:27:49.506,-9.50591,-5.02794,45.6191,0,0,0
 16:27:49.516,-9.89881,-4.96101,46.087,0,0,0
 16:27:49.526,-10.2775,-4.9282,46.5874,0,0,0
 16:27:49.536,-10.5994,-4.93195,47.0714,0,0,0
 16:27:49.546,-10.876,-4.99954,47.4873,0,0,0
 16:27:49.556,-11.1626,-5.02955,47.8418,0,0,0
 16:27:49.566,-11.4395,-5.02447,48.1804,0,0,0
 16:27:49.576,-11.7088,-5.05877,48.5447,0,0,0
 16:27:49.586,-11.945,-5.08614,48.9377,0,0,0
 16:27:49.596,-12.1248,-5.11114,49.3636,0,0,0
 16:27:49.606,-12.2387,-5.14313,49.8317,0,0,0
 16:27:49.616,-12.3058,-5.17353,50.3237,0,0,0
 16:27:49.625,-12.3722,-5.1919,50.8281,0,0,0
 16:27:49.636,-12.4316,-5.23344,51.3258,0,0,0
 16:27:49.646,-12.456,-5.30926,51.7817,0,0,0
 16:27:49.656,-12.4271,-5.38369,52.1686,0,0,0
 16:27:49.666,-12.3642,-5.44815,52.4996,0,0,0
 16:27:49.676,-12.2873,-5.49084,52.8242,0,0,0
 16:27:49.686,-12.2003,-5.48027,53.1562,0,0,0
 16:27:49.695,-12.1011,-5.40369,53.4926,0,0,0
 16:27:49.705,-12.0316,-5.29506,53.8384,0,0,0
 16:27:49.716,-12.0107,-5.19426,54.1854,0,0,0
 16:27:49.726,-12.0645,-5.11676,54.5167,0,0,0
 16:27:49.735,-12.1478,-5.05829,54.8042,0,0,0
 16:27:49.746,-12.21,-5.00331,55.0803,0,0,0
 16:27:49.756,-12.2377,-4.9238,55.3924,0,0,0
 16:27:49.766,-12.2512,-4.87688,55.7449,0,0,0
 16:27:49.775,-12.2587,-4.84413,56.0982,0,0,0
 16:27:49.786,-12.2928,-4.81167,56.4515,0,0,0
 16:27:49.796,-12.2605,-4.75115,56.7046,0,0,0
 16:27:49.806,-12.1779,-4.69428,57.005,0,0,0
 16:27:49.816,-12.0593,-4.65666,57.3665,0,0,0
 16:27:49.826,-11.8929,-4.5987,57.7804,0,0,0
 16:27:49.836,-11.6496,-4.50424,58.2516,0,0,0
 16:27:49.846,-11.3643,-4.402,58.7613,0,0,0
 16:27:49.856,-11.0867,-4.29762,59.276,0,0,0
 16:27:49.866,-10.8375,-4.19856,59.7666,0,0,0
 16:27:49.876,-10.6532,-4.06056,60.2341,0,0,0
 16:27:49.885,-10.5405,-3.91247,60.6982,0,0,0
 16:27:49.896,-10.4941,-3.75714,61.1572,0,0,0
 16:27:49.906,-10.459,-3.58276,61.5985,0,0,0
 16:27:49.916,-10.4198,-3.34738,62.0088,0,0,0
 16:27:49.926,-10.4014,-3.05879,62.4089,0,0,0
 16:27:49.936,-10.4232,-2.82209,62.8281,0,0,0
 16:27:49.946,-10.5191,-2.62507,63.2347,0,0,0
 16:27:49.956,-10.7037,-2.40869,63.6499,0,0,0
 16:27:49.966,-10.9206,-2.21603,64.1313,0,0,0
 16:27:49.976,-11.1503,-2.06741,64.7041,0,0,0
 16:27:49.986,-11.3793,-1.95271,65.3318,0,0,0
 16:27:49.996,-11.5884,-1.88926,65.933,0,0,0
 16:27:50.005,-11.7549,-1.80763,66.4131,0,0,0
 16:27:50.016,-11.8892,-1.69731,66.7998,0,0,0
 16:27:50.025,-11.9616,-1.63207,67.2055,0,0,0
 16:27:50.036,-11.9455,-1.62727,67.6368,0,0,0
 16:27:50.045,-11.9154,-1.62715,68.0937,0,0,0
 16:27:50.056,-11.8798,-1.62674,68.5506,0,0,0
 16:27:50.066,-11.9403,-1.61397,69.0372,0,0,0
 16:27:50.076,-12.024,-1.60188,69.5239,0,0,0
 16:27:50.086,-12.3943,-1.51212,69.9495,0,0,0
 16:27:50.096,-12.7703,-1.44583,70.3978,0,0,0
 16:27:50.106,-13.0964,-1.5376,70.8888,0,0,0
 16:27:50.116,-13.2847,-1.65595,71.3706,0,0,0
 16:27:50.126,-13.3627,-1.78288,71.8839,0,0,0
 16:27:50.136,-13.3639,-2.01094,72.4403,0,0,0
 16:27:50.145,-13.2712,-2.30809,73.0108,0,0,0
 16:27:50.156,-13.1287,-2.61881,73.573,0,0,0
 16:27:50.166,-12.9983,-2.88712,74.1326,0,0,0
 16:27:50.176,-12.9123,-3.13013,74.6919,0,0,0
 16:27:50.185,-12.9334,-3.33787,75.2451,0,0,0
 16:27:50.196,-13.1278,-3.5264,75.811,0,0,0
 16:27:50.206,-13.4703,-3.76193,76.3807,0,0,0
 16:27:50.216,-13.8844,-4.04088,76.8941,0,0,0
 16:27:50.225,-14.2804,-4.30629,77.3219,0,0,0
 16:27:50.236,-14.5666,-4.51316,77.7018,0,0,0
 16:27:50.246,-14.7305,-4.70872,78.1067,0,0,0
 16:27:50.256,-14.8049,-4.94203,78.5621,0,0,0
 16:27:50.266,-14.8098,-5.22102,79.0253,0,0,0
 16:27:50.275,-14.7965,-5.50185,79.48,0,0,0
 16:27:50.286,-14.822,-5.76438,79.9534,0,0,0
 16:27:50.296,-14.9216,-6.0041,80.4406,0,0,0
 16:27:50.306,-15.091,-6.22366,80.9337,0,0,0
 16:27:50.315,-15.2834,-6.46235,81.4182,0,0,0
 16:27:50.326,-15.4518,-6.67146,81.803,0,0,0
 16:27:50.336,-15.5925,-6.74541,82.1108,0,0,0
 16:27:50.346,-15.7425,-6.76314,82.4169,0,0,0
 16:27:50.356,-15.897,-6.78156,82.7231,0,0,0
 16:27:50.366,-16.035,-6.882,82.9914,0,0,0
 16:27:50.376,-16.1589,-6.9633,83.2097,0,0,0
 16:27:50.385,-16.2697,-7.0213,83.4369,0,0,0
 16:27:50.396,-16.3605,-7.08415,83.7198,0,0,0
 16:27:50.406,-16.3523,-7.14965,84.0498,0,0,0
 16:27:50.416,-16.5324,-7.42308,84.4207,0,0,0
 16:27:50.426,-16.3915,-7.45204,84.889,0,0,0
 16:27:50.436,-16.1747,-7.49582,85.363,0,0,0
 16:27:50.446,-15.9803,-7.6103,85.8011,0,0,0
 16:27:50.456,-15.8632,-7.66654,86.2008,0,0,0
 16:27:50.466,-15.8305,-7.70324,86.5883,0,0,0
 16:27:50.476,-15.8575,-7.67283,86.9327,0,0,0
 16:27:50.486,-15.8654,-7.6211,87.2155,0,0,0
 16:27:50.496,-15.796,-7.55236,87.4369,0,0,0
 16:27:50.506,-15.665,-7.46405,87.5981,0,0,0
 16:27:50.516,-15.5088,-7.39589,87.7097,0,0,0
 16:27:50.525,-15.3473,-7.34254,87.7814,0,0,0
 16:27:50.536,-15.1892,-7.2776,87.8273,0,0,0
 16:27:50.546,-15.0622,-7.17786,87.8593,0,0,0
 16:27:50.555,-14.9818,-7.06032,87.8818,0,0,0
 16:27:50.565,-14.9301,-6.95035,87.8716,0,0,0
 16:27:50.576,-14.9034,-6.84341,87.797,0,0,0
 16:27:50.586,-14.8755,-6.72587,87.6494,0,0,0
 16:27:50.596,-14.8476,-6.60613,87.4678,0,0,0
 16:27:50.606,-14.8165,-6.49703,87.2892,0,0,0
 16:27:50.616,-14.7661,-6.40041,87.1329,0,0,0
 16:27:50.626,-14.6648,-6.32385,87.0079,0,0,0
 16:27:50.636,-14.5385,-6.26964,86.9018,0,0,0
 16:27:50.646,-14.4243,-6.21635,86.796,0,0,0
 16:27:50.656,-14.2346,-6.24443,86.7391,0,0,0
 16:27:50.666,-14.0457,-6.29208,86.6547,0,0,0
 16:27:50.676,-13.8845,-6.34002,86.5392,0,0,0
 16:27:50.686,-13.7541,-6.389,86.4075,0,0,0
 16:27:50.695,-13.6427,-6.4051,86.2777,0,0,0
 16:27:50.705,-13.5207,-6.39138,86.1599,0,0,0
 16:27:50.715,-13.3257,-6.37896,86.0563,0,0,0
 16:27:50.725,-13.0693,-6.37124,85.9592,0,0,0
 16:27:50.736,-12.809,-6.36774,85.8575,0,0,0
 16:27:50.746,-12.5677,-6.35074,85.7583,0,0,0
 16:27:50.756,-12.3364,-6.32654,85.6745,0,0,0
 16:27:50.765,-12.0895,-6.31947,85.5843,0,0,0
 16:27:50.776,-11.8385,-6.33217,85.4548,0,0,0
 16:27:50.786,-11.5715,-6.35388,85.2682,0,0,0
 16:27:50.795,-11.2989,-6.37258,85.0168,0,0,0
 16:27:50.806,-11.0574,-6.3527,84.7079,0,0,0
 16:27:50.816,-10.9042,-6.27003,84.3509,0,0,0
 16:27:50.826,-10.8541,-6.1314,83.9348,0,0,0
 16:27:50.836,-10.8309,-5.96272,83.4682,0,0,0
 16:27:50.846,-10.7812,-5.78208,82.9852,0,0,0
 16:27:50.856,-10.6534,-5.61129,82.5103,0,0,0
 16:27:50.866,-10.4619,-5.4672,82.0364,0,0,0
 16:27:50.876,-10.2427,-5.32502,81.5544,0,0,0
 16:27:50.886,-10.0431,-5.16175,81.0515,0,0,0
 16:27:50.896,-9.89413,-5.00364,80.5491,0,0,0
 16:27:50.906,-9.80376,-4.8255,80.0516,0,0,0
 16:27:50.915,-9.80334,-4.6226,79.5289,0,0,0
 16:27:50.926,-9.84057,-4.42048,78.9766,0,0,0
 16:27:50.936,-9.91161,-4.21995,78.4245,0,0,0
 16:27:50.945,-9.90981,-3.98206,77.8141,0,0,0
 16:27:50.955,-9.78689,-3.74957,77.2202,0,0,0
 16:27:50.966,-9.57632,-3.53057,76.6692,0,0,0
 16:27:50.975,-9.36739,-3.3158,76.1645,0,0,0
 16:27:50.985,-9.2201,-3.07945,75.6812,0,0,0
 16:27:50.996,-9.1386,-2.82748,75.1685,0,0,0
 16:27:51.006,-9.12322,-2.5573,74.5694,0,0,0
 16:27:51.016,-9.18731,-2.24232,73.8461,0,0,0
 16:27:51.026,-9.28813,-1.89296,73.0121,0,0,0
 16:27:51.036,-9.32465,-1.54125,72.1323,0,0,0
 16:27:51.046,-9.28629,-1.18073,71.2751,0,0,0
 16:27:51.055,-9.18944,-0.793506,70.4666,0,0,0
 16:27:51.066,-9.04145,-0.387981,69.7061,0,0,0
 16:27:51.076,-8.86641,-0.0038195,68.9605,0,0,0
 16:27:51.086,-8.64955,0.339058,68.1373,0,0,0
 16:27:51.096,-8.4051,0.69381,67.1404,0,0,0
 16:27:51.106,-8.19357,1.08161,66.0391,0,0,0
 16:27:51.116,-8.03362,1.45859,64.9669,0,0,0
 16:27:51.126,-7.90841,1.77148,64.0198,0,0,0
 16:27:51.136,-7.78862,2.03801,63.2392,0,0,0
 16:27:51.146,-7.65576,2.27005,62.6249,0,0,0
 16:27:51.155,-7.47778,2.48229,62.1501,0,0,0
 16:27:51.165,-7.22474,2.64462,61.7848,0,0,0
 16:27:51.175,-6.89089,2.71226,61.4741,0,0,0
 16:27:51.186,-6.51447,2.71805,61.1422,0,0,0
 16:27:51.195,-6.15517,2.69998,60.7107,0,0,0
 16:27:51.206,-5.86604,2.67497,60.1616,0,0,0
 16:27:51.216,-5.66372,2.69232,59.498,0,0,0
 16:27:51.226,-5.47393,2.70722,58.8345,0,0,0
 16:27:51.236,-5.24933,2.77433,57.9765,0,0,0
 16:27:51.246,-4.89741,2.85351,57.0233,0,0,0
 16:27:51.256,-4.41765,2.9165,55.9899,0,0,0
 16:27:51.266,-3.85509,2.94282,54.8866,0,0,0
 16:27:51.276,-3.25715,2.91328,53.7594,0,0,0
 16:27:51.286,-2.72652,2.87052,52.6847,0,0,0
 16:27:51.296,-2.33302,2.88835,51.7164,0,0,0
 16:27:51.306,-2.06434,2.96468,50.8781,0,0,0
 16:27:51.316,-1.87736,3.07554,50.1323,0,0,0
 16:27:51.326,-1.68531,3.17708,49.4219,0,0,0
 16:27:51.335,-1.44767,3.24279,48.697,0,0,0
 16:27:51.346,-1.1506,3.28107,47.896,0,0,0
 16:27:51.355,-0.83981,3.25335,46.9733,0,0,0
 16:27:51.365,-0.547794,3.13505,45.9095,0,0,0
 16:27:51.375,-0.288366,2.94033,44.7338,0,0,0
 16:27:51.386,-0.103894,2.75144,43.4995,0,0,0
 16:27:51.396,-0.0260546,2.64531,42.2869,0,0,0
 16:27:51.406,-0.0621446,2.7312,41.1149,0,0,0
 16:27:51.416,-0.171759,2.86615,39.9712,0,0,0
 16:27:51.426,-0.283193,2.94855,38.8195,0,0,0
 16:27:51.435,-0.352726,2.99415,37.6182,0,0,0
 16:27:51.445,-0.400851,3.00997,36.3412,0,0,0
 16:27:51.456,-0.446942,2.97923,34.9785,0,0,0
 16:27:51.466,-0.467663,2.8949,33.4924,0,0,0
 16:27:51.476,-0.483094,2.828,31.8407,0,0,0
 16:27:51.486,-0.504855,2.80678,30.0466,0,0,0
 16:27:51.496,-0.50272,2.86813,28.1937,0,0,0
 16:27:51.506,-0.477234,3.02879,26.4606,0,0,0
 16:27:51.516,-0.451925,3.18699,24.7277,0,0,0
 16:27:51.525,-0.368779,3.41524,23.5375,0,0,0
 16:27:51.535,-0.197308,3.5543,22.7305,0,0,0
 16:27:51.545,0.0370901,3.56137,22.1621,0,0,0
 16:27:51.556,0.308586,3.43942,21.7021,0,0,0
 16:27:51.566,0.558248,3.15892,21.2526,0,0,0
 16:27:51.575,0.768065,2.8168,20.7507,0,0,0
 16:27:51.586,0.926396,2.55931,20.2135,0,0,0
 16:27:51.596,1.02259,2.42408,19.707,0,0,0
 16:27:51.606,1.0666,2.38856,19.2804,0,0,0
 16:27:51.616,1.11964,2.34099,18.9341,0,0,0
 16:27:51.626,1.23012,2.1624,18.6248,0,0,0
 16:27:51.636,1.40555,1.96324,18.2909,0,0,0
 16:27:51.646,1.61938,1.80436,17.9236,0,0,0
 16:27:51.656,1.84027,1.64201,17.534,0,0,0
 16:27:51.666,2.0431,1.51395,17.1339,0,0,0
 16:27:51.676,2.2176,1.47873,16.7053,0,0,0
 16:27:51.685,2.35395,1.45952,16.1873,0,0,0
 16:27:51.695,2.41822,1.41022,15.5158,0,0,0
 16:27:51.706,2.37104,1.38494,14.6802,0,0,0
 16:27:51.716,2.21941,1.38155,13.7843,0,0,0
 16:27:51.726,2.04507,1.4219,12.9836,0,0,0
 16:27:51.736,1.93187,1.55762,12.3893,0,0,0
 16:27:51.745,1.91723,1.73317,12.0514,0,0,0
 16:27:51.756,1.99579,1.82032,11.9515,0,0,0
 16:27:51.766,2.14843,1.76098,11.9987,0,0,0
 16:27:51.776,2.3264,1.61347,12.0662,0,0,0
 16:27:51.786,2.46447,1.39798,12.075,0,0,0
 16:27:51.796,2.57394,1.16036,12.0471,0,0,0
 16:27:51.806,2.67804,0.925015,12.0187,0,0,0
 16:27:51.816,2.54071,0.684202,11.8133,0,0,0
 16:27:51.826,2.39189,0.556946,11.6025,0,0,0
 16:27:51.836,2.25763,0.495534,11.4018,0,0,0
 16:27:51.846,2.18573,0.447466,11.1959,0,0,0
 16:27:51.856,2.17505,0.327663,10.9731,0,0,0
 16:27:51.866,2.19477,0.0938779,10.7665,0,0,0
 16:27:51.876,2.18515,-0.202254,10.6063,0,0,0
 16:27:51.886,2.11977,-0.449724,10.4971,0,0,0
 16:27:51.896,1.98086,-0.61962,10.409,0,0,0
 16:27:51.905,1.77652,-0.781252,10.2916,0,0,0
 16:27:51.916,1.54338,-0.957536,10.0876,0,0,0
 16:27:51.926,1.33279,-1.15307,9.78931,0,0,0
 16:27:51.936,1.16481,-1.26879,9.4208,0,0,0
 16:27:51.946,1.05409,-1.28745,9.01669,0,0,0
 16:27:51.956,0.965882,-1.23842,8.59855,0,0,0
 16:27:51.965,0.859211,-1.15461,8.20093,0,0,0
 16:27:51.976,0.732356,-1.05917,7.84228,0,0,0
 16:27:51.986,0.60604,-0.980657,7.51569,0,0,0
 16:27:51.996,0.510491,-0.959744,7.22549,0,0,0
 16:27:52.006,0.473563,-0.992696,6.9533,0,0,0
 16:27:52.016,0.488749,-1.07022,6.67308,0,0,0
 16:27:52.026,0.539015,-1.17078,6.38047,0,0,0
 16:27:52.036,0.595291,-1.25699,6.08844,0,0,0
 16:27:52.045,0.637114,-1.32878,5.80916,0,0,0
 16:27:52.055,0.649638,-1.40432,5.5875,0,0,0
 16:27:52.066,0.656968,-1.47327,5.41912,0,0,0
 16:27:52.075,0.68422,-1.53207,5.27269,0,0,0
 16:27:52.086,0.703236,-1.59035,5.12625,0,0,0
 16:27:52.096,0.799514,-1.72831,4.99004,0,0,0
 16:27:52.106,0.846425,-1.78739,4.87703,0,0,0
 16:27:52.116,0.82061,-1.8533,4.76517,0,0,0
 16:27:52.126,0.749531,-1.92846,4.61418,0,0,0
 16:27:52.136,0.691268,-2.01495,4.42028,0,0,0
 16:27:52.146,0.663263,-2.14604,4.22619,0,0,0
 16:27:52.156,0.632336,-2.2457,4.08113,0,0,0
 16:27:52.166,0.60427,-2.332,4.01379,0,0,0
 16:27:52.176,0.575971,-2.39537,4.01772,0,0,0
 16:27:52.186,0.541529,-2.4012,4.05859,0,0,0
 16:27:52.196,0.487316,-2.37009,4.08915,0,0,0
 16:27:52.206,0.417522,-2.31982,4.07058,0,0,0
 16:27:52.216,0.374999,-2.33194,3.98598,0,0,0
 16:27:52.225,0.388363,-2.43149,3.86585,0,0,0
 16:27:52.236,0.477514,-2.51563,3.75102,0,0,0
 16:27:52.246,0.617162,-2.60221,3.71636,0,0,0
 16:27:52.255,0.766737,-2.70877,3.77279,0,0,0
 16:27:52.266,0.865572,-2.83387,3.89573,0,0,0
 16:27:52.276,0.883919,-2.9646,4.03756,0,0,0
 16:27:52.286,0.807287,-3.05598,4.14801,0,0,0
 16:27:52.296,0.638686,-3.11589,4.19525,0,0,0
 16:27:52.306,0.433464,-3.20372,4.19368,0,0,0
 16:27:52.316,0.243496,-3.27701,4.16376,0,0,0
 16:27:52.326,0.102694,-3.28545,4.13919,0,0,0
 16:27:52.336,0.0370947,-3.27588,4.12242,0,0,0
 16:27:52.346,0.0517221,-3.29343,4.11022,0,0,0
 16:27:52.355,0.108928,-3.3362,4.09888,0,0,0
 16:27:52.365,0.157002,-3.37855,4.0875,0,0,0
 16:27:52.375,0.163116,-3.39041,4.06471,0,0,0
 16:27:52.386,0.127567,-3.38288,4.03844,0,0,0
 16:27:52.396,0.0656827,-3.37401,4.01282,0,0,0
 16:27:52.406,-0.000602429,-3.37156,4.00168,0,0,0
 16:27:52.416,-0.0661892,-3.37539,4.00026,0,0,0
 16:27:52.426,-0.155994,-3.34106,3.99211,0,0,0
 16:27:52.436,-0.257117,-3.31643,3.95389,0,0,0
 16:27:52.446,-0.358246,-3.30119,3.86991,0,0,0
 16:27:52.456,-0.459799,-3.23594,3.74731,0,0,0
 16:27:52.466,-0.551653,-3.17492,3.61892,0,0,0
 16:27:52.476,-0.60673,-3.16355,3.52512,0,0,0
 16:27:52.486,-0.61932,-3.18485,3.4767,0,0,0
 16:27:52.496,-0.591109,-3.23016,3.47844,0,0,0
 16:27:52.506,-0.547001,-3.27243,3.50069,0,0,0
 16:27:52.516,-0.517399,-3.28644,3.5234,0,0,0
 16:27:52.526,-0.534219,-3.24636,3.5193,0,0,0
 16:27:52.536,-0.605777,-3.16736,3.47109,0,0,0
 16:27:52.545,-0.695026,-3.07836,3.38597,0,0,0
 16:27:52.556,-0.760527,-3.02266,3.29242,0,0,0
 16:27:52.566,-0.76911,-2.98816,3.22474,0,0,0
 16:27:52.575,-0.710465,-2.97862,3.18713,0,0,0
 16:27:52.586,-0.600145,-2.97076,3.14206,0,0,0
 16:27:52.596,-0.464694,-2.94576,3.04292,0,0,0
 16:27:52.606,-0.329745,-2.942,2.87813,0,0,0
 16:27:52.616,-0.234778,-2.99104,2.65543,0,0,0
 16:27:52.626,-0.221099,-3.04313,2.41749,0,0,0
 16:27:52.636,-0.29059,-3.06791,2.20558,0,0,0
 16:27:52.646,-0.380378,-3.08536,2.00523,0,0,0
 16:27:52.656,-0.469329,-3.10233,1.80487,0,0,0
 16:27:52.668,-0.567504,-2.97749,1.66018,0,0,0
 16:27:52.676,-0.636236,-2.89923,1.5163,0,0,0
 16:27:52.686,-0.653349,-2.87738,1.37932,0,0,0
 16:27:52.695,-0.632339,-2.83858,1.25621,0,0,0
 16:27:52.705,-0.611558,-2.71948,1.14344,0,0,0
 16:27:52.716,-0.609114,-2.61551,1.03521,0,0,0
 16:27:52.726,-0.614037,-2.55523,0.902601,0,0,0
 16:27:52.736,-0.626674,-2.50351,0.733412,0,0,0
 16:27:52.746,-0.640746,-2.47022,0.539277,0,0,0
 16:27:52.756,-0.658783,-2.43806,0.341091,0,0,0
 16:27:52.766,-0.687505,-2.40506,0.158974,0,0,0
 16:27:52.776,-0.717574,-2.37712,0.00978036,0,0,0
 16:27:52.786,-0.749605,-2.37245,-0.0813095,0,0,0
 16:27:52.796,-0.77204,-2.39439,-0.0925484,0,0,0
 16:27:52.805,-0.790597,-2.43274,-0.0226947,0,0,0
 16:27:52.816,-0.80135,-2.46869,0.108231,0,0,0
 16:27:52.826,-0.814598,-2.50686,0.23506,0,0,0
 16:27:52.836,-0.850945,-2.5902,0.311995,0,0,0
 16:27:52.846,-0.912778,-2.72664,0.324157,0,0,0
 16:27:52.856,-0.990175,-2.85312,0.272438,0,0,0
 16:27:52.866,-1.0781,-2.94758,0.178298,0,0,0
 16:27:52.876,-1.19179,-3.03735,0.0799891,0,0,0
 16:27:52.886,-1.32569,-3.0998,0.0104115,0,0,0
 16:27:52.896,-1.46637,-3.12252,-0.0100945,0,0,0
 16:27:52.906,-1.57875,-3.07794,0.000801312,0,0,0
 16:27:52.916,-1.64123,-3.02074,0.0333307,0,0,0
 16:27:52.926,-1.65509,-2.97481,0.0645992,0,0,0
 16:27:52.936,-1.65547,-2.9349,0.0902963,0,0,0
 16:27:52.946,-1.65955,-2.89538,0.116,0,0,0
 16:27:52.955,-1.66088,-2.85142,0.0403434,0,0,0
 16:27:52.965,-1.66723,-2.77315,-0.0780633,0,0,0
 16:27:52.976,-1.68466,-2.65004,-0.212298,0,0,0
 16:27:52.985,-1.69563,-2.47276,-0.347233,0,0,0
 16:27:52.996,-1.67505,-2.21677,-0.485957,0,0,0
 16:27:53.006,-1.61341,-1.91075,-0.61891,0,0,0
 16:27:53.016,-1.51013,-1.57133,-0.725446,0,0,0
 16:27:53.026,-1.37432,-1.21737,-0.77467,0,0,0
 16:27:53.036,-1.21719,-0.874383,-0.771588,0,0,0
 16:27:53.045,-1.05563,-0.550679,-0.748748,0,0,0
 16:27:53.056,-0.915148,-0.208116,-0.762556,0,0,0
 16:27:53.066,-0.814779,0.116212,-0.845887,0,0,0
 16:27:53.076,-0.745569,0.39443,-0.997243,0,0,0
 16:27:53.086,-0.699231,0.65608,-1.17262,0,0,0
 16:27:53.096,-0.673212,0.936052,-1.33803,0,0,0
 16:27:53.106,-0.653222,1.22285,-1.48218,0,0,0
 16:27:53.116,-0.64435,1.4795,-1.60441,0,0,0
 16:27:53.126,-0.635414,1.69676,-1.70561,0,0,0
 16:27:53.136,-0.635826,1.8907,-1.76522,0,0,0
 16:27:53.146,-0.658665,2.07698,-1.76655,0,0,0
 16:27:53.155,-0.686908,2.27206,-1.7215,0,0,0
 16:27:53.165,-0.690392,2.46498,-1.6454,0,0,0
 16:27:53.175,-0.687751,2.64819,-1.55144,0,0,0
 16:27:53.185,-0.691193,2.80266,-1.44612,0,0,0
 16:27:53.196,-0.679946,2.91609,-1.35971,0,0,0
 16:27:53.206,-0.643776,3.02828,-1.31994,0,0,0
 16:27:53.216,-0.596586,3.14514,-1.32734,0,0,0
 16:27:53.226,-0.549909,3.24831,-1.34958,0,0,0
 16:27:53.236,-0.512824,3.35043,-1.37175,0,0,0
 16:27:53.246,-0.523877,3.48286,-1.44917,0,0,0
 16:27:53.256,-0.54916,3.61011,-1.51038,0,0,0
 16:27:53.266,-0.580157,3.77379,-1.55753,0,0,0
 16:27:53.276,-0.612515,3.94571,-1.60059,0,0,0
 16:27:53.286,-0.629671,4.14132,-1.65763,0,0,0
 16:27:53.295,-0.631936,4.41791,-1.73488,0,0,0
 16:27:53.306,-0.632155,4.72862,-1.80957,0,0,0
 16:27:53.316,-0.632184,5.07111,-1.86181,0,0,0
 16:27:53.325,-0.63037,5.43866,-1.88759,0,0,0
 16:27:53.335,-0.612862,5.7883,-1.90407,0,0,0
 16:27:53.346,-0.557286,6.05999,-1.93604,0,0,0
 16:27:53.356,-0.47596,6.28299,-2.00483,0,0,0
 16:27:53.365,-0.390323,6.51881,-2.11723,0,0,0
 16:27:53.376,-0.320208,6.73871,-2.26754,0,0,0
 16:27:53.386,-0.24797,6.94559,-2.43807,0,0,0
 16:27:53.396,-0.165687,7.14155,-2.58924,0,0,0
 16:27:53.405,-0.082158,7.34439,-2.67642,0,0,0
 16:27:53.415,-0.00931,7.58041,-2.6884,0,0,0
 16:27:53.425,0.0500601,7.82867,-2.63484,0,0,0
 16:27:53.436,0.106783,8.06717,-2.55197,0,0,0
 16:27:53.446,0.152033,8.30137,-2.47059,0,0,0
 16:27:53.456,0.181876,8.5049,-2.40108,0,0,0
 16:27:53.466,0.191009,8.66926,-2.34943,0,0,0
 16:27:53.475,0.203492,8.80324,-2.33896,0,0,0
 16:27:53.486,0.228363,8.90941,-2.37534,0,0,0
 16:27:53.496,0.258717,9.0586,-2.45579,0,0,0
 16:27:53.506,0.304467,9.24437,-2.56466,0,0,0
 16:27:53.516,0.350109,9.4282,-2.6734,0,0,0
 16:27:53.526,0.389838,9.61011,-2.78203,0,0,0
 16:27:53.536,0.470351,9.86713,-2.87274,0,0,0
 16:27:53.545,0.553648,10.1326,-2.93009,0,0,0
 16:27:53.556,0.623848,10.3865,-2.96065,0,0,0
 16:27:53.566,0.686032,10.6079,-2.9832,0,0,0
 16:27:53.576,0.739522,10.7995,-2.99273,0,0,0
 16:27:53.586,0.788779,10.977,-2.97299,0,0,0
 16:27:53.596,0.808573,11.1526,-2.89606,0,0,0
 16:27:53.606,0.799944,11.3384,-2.77048,0,0,0
 16:27:53.616,0.775732,11.5274,-2.63315,0,0,0
 16:27:53.625,0.751318,11.6773,-2.51143,0,0,0
 16:27:53.636,0.758395,11.8131,-2.4221,0,0,0
 16:27:53.646,0.785771,12.0173,-2.36304,0,0,0
 16:27:53.656,0.814335,12.2646,-2.30797,0,0,0
 16:27:53.666,0.827454,12.5056,-2.25174,0,0,0
 16:27:53.676,0.825581,12.7385,-2.18547,0,0,0
 16:27:53.686,0.816738,12.9394,-2.11788,0,0,0
 16:27:53.696,0.811509,13.0958,-2.06829,0,0,0
 16:27:53.706,0.82439,13.2202,-2.05365,0,0,0
 16:27:53.716,0.866693,13.3221,-2.08151,0,0,0
 16:27:53.726,0.924286,13.4397,-2.14079,0,0,0
 16:27:53.736,0.986898,13.624,-2.21972,0,0,0
 16:27:53.746,1.04305,13.8604,-2.31004,0,0,0
 16:27:53.756,1.0916,14.1227,-2.3914,0,0,0
 16:27:53.766,1.12405,14.401,-2.45426,0,0,0
 16:27:53.776,1.1474,14.6999,-2.51279,0,0,0
 16:27:53.786,1.17229,15.0557,-2.58348,0,0,0
 16:27:53.796,1.20289,15.4381,-2.66223,0,0,0
 16:27:53.806,1.24302,15.8166,-2.7408,0,0,0
 16:27:53.816,1.31815,16.1999,-2.78521,0,0,0
 16:27:53.826,1.40335,16.5017,-2.80227,0,0,0
 16:27:53.836,1.48184,16.7391,-2.81447,0,0,0
 16:27:53.846,1.55389,16.9475,-2.8497,0,0,0
 16:27:53.856,1.60455,17.1441,-2.91121,0,0,0
 16:27:53.866,1.6204,17.3672,-2.98271,0,0,0
 16:27:53.876,1.61821,17.5711,-3.05597,0,0,0
 16:27:53.886,1.61838,17.7562,-3.12688,0,0,0
 16:27:53.896,1.62022,17.9428,-3.18295,0,0,0
 16:27:53.906,1.61845,18.0983,-3.20858,0,0,0
 16:27:53.915,1.61196,18.2379,-3.19166,0,0,0
 16:27:53.926,1.60042,18.357,-3.13149,0,0,0
 16:27:53.936,1.58668,18.4411,-3.03718,0,0,0
 16:27:53.946,1.56897,18.4905,-2.93665,0,0,0
 16:27:53.956,1.53305,18.5336,-2.85717,0,0,0
 16:27:53.966,1.47325,18.5854,-2.80653,0,0,0
 16:27:53.976,1.3941,18.6568,-2.79089,0,0,0
 16:27:53.985,1.30884,18.7521,-2.80683,0,0,0
 16:27:53.996,1.23941,18.8558,-2.84095,0,0,0
 16:27:54.006,1.1952,18.9603,-2.86549,0,0,0
 16:27:54.016,1.18871,19.0449,-2.87538,0,0,0
 16:27:54.026,1.21173,19.1061,-2.86911,0,0,0
 16:27:54.035,1.2507,19.1757,-2.85008,0,0,0
 16:27:54.045,1.28332,19.2817,-2.83358,0,0,0
 16:27:54.056,1.27583,19.4343,-2.82642,0,0,0
 16:27:54.066,1.22312,19.6267,-2.83318,0,0,0
 16:27:54.076,1.16381,19.8148,-2.85688,0,0,0
 16:27:54.086,1.09632,20.001,-2.88083,0,0,0
 16:27:54.096,1.09015,20.2225,-2.90401,0,0,0
 16:27:54.106,1.10438,20.4549,-2.92156,0,0,0
 16:27:54.116,1.12036,20.7286,-2.93709,0,0,0
 16:27:54.126,1.11944,20.998,-2.94593,0,0,0
 16:27:54.136,1.10111,21.271,-2.94267,0,0,0
 16:27:54.146,1.05708,21.5752,-2.92848,0,0,0
 16:27:54.156,0.985365,21.9239,-2.91572,0,0,0
 16:27:54.166,0.899279,22.2856,-2.91239,0,0,0
 16:27:54.176,0.825088,22.6264,-2.90466,0,0,0
 16:27:54.186,0.772365,22.9343,-2.87714,0,0,0
 16:27:54.196,0.755087,23.2104,-2.83091,0,0,0
 16:27:54.206,0.775341,23.4164,-2.78031,0,0,0
 16:27:54.216,0.826473,23.5188,-2.7511,0,0,0
 16:27:54.226,0.900353,23.5793,-2.75482,0,0,0
 16:27:54.235,0.974032,23.6217,-2.78961,0,0,0
 16:27:54.246,1.02356,23.6371,-2.81511,0,0,0
 16:27:54.256,1.02978,23.5812,-2.81187,0,0,0
 16:27:54.265,1.01331,23.4655,-2.78731,0,0,0
 16:27:54.275,0.980611,23.3239,-2.75069,0,0,0
 16:27:54.285,0.929678,23.1317,-2.70397,0,0,0
 16:27:54.296,0.873041,22.8687,-2.64276,0,0,0
 16:27:54.306,0.821992,22.5405,-2.5587,0,0,0
 16:27:54.316,0.766748,22.1961,-2.45581,0,0,0
 16:27:54.326,0.698577,21.8624,-2.34738,0,0,0
 16:27:54.336,0.622494,21.4969,-2.23783,0,0,0
 16:27:54.346,0.552648,21.0687,-2.15239,0,0,0
 16:27:54.356,0.494046,20.6124,-2.10251,0,0,0
 16:27:54.366,0.435846,20.1605,-2.05208,0,0,0
 16:27:54.376,0.397497,19.6904,-2.09728,0,0,0
 16:27:54.386,0.373411,19.2373,-2.16328,0,0,0
 16:27:54.396,0.37278,18.794,-2.23664,0,0,0
 16:27:54.405,0.385905,18.3519,-2.30787,0,0,0
 16:27:54.416,0.403239,17.9007,-2.37455,0,0,0
 16:27:54.426,0.427067,17.4386,-2.42786,0,0,0
 16:27:54.436,0.416884,17.0054,-2.45068,0,0,0
 16:27:54.446,0.356438,16.6383,-2.45793,0,0,0
 16:27:54.456,0.266105,16.3368,-2.45127,0,0,0
 16:27:54.466,0.160647,16.0511,-2.42524,0,0,0
 16:27:54.476,0.0525547,15.7412,-2.37797,0,0,0
 16:27:54.486,-0.0459173,15.3693,-2.31387,0,0,0
 16:27:54.496,-0.124769,14.9709,-2.24096,0,0,0
 16:27:54.506,-0.183795,14.5749,-2.18325,0,0,0
 16:27:54.516,-0.21584,14.1562,-2.14493,0,0,0
 16:27:54.526,-0.236247,13.7631,-2.13181,0,0,0
 16:27:54.536,-0.251847,13.3921,-2.13882,0,0,0
 16:27:54.546,-0.262758,12.9925,-2.16002,0,0,0
 16:27:54.556,-0.265078,12.5979,-2.17731,0,0,0
 16:27:54.566,-0.277968,12.1759,-2.16019,0,0,0
 16:27:54.576,-0.301775,11.7045,-2.10063,0,0,0
 16:27:54.585,-0.346917,11.2098,-2.01326,0,0,0
 16:27:54.596,-0.413584,10.6777,-1.90997,0,0,0
 16:27:54.606,-0.502819,10.1088,-1.79546,0,0,0
 16:27:54.616,-0.601343,9.49309,-1.68033,0,0,0
 16:27:54.626,-0.698281,8.88171,-1.55695,0,0,0
 16:27:54.636,-0.787482,8.28011,-1.4252,0,0,0
 16:27:54.646,-0.869335,7.6769,-1.2931,0,0,0
 16:27:54.656,-0.957649,7.07952,-1.16017,0,0,0
 16:27:54.666,-0.99795,6.39907,-1.09387,0,0,0
 16:27:54.676,-1.04601,5.78161,-1.02962,0,0,0
 16:27:54.685,-1.11143,5.28252,-0.938629,0,0,0
 16:27:54.696,-1.18535,4.87913,-0.824111,0,0,0
 16:27:54.705,-1.24499,4.51877,-0.710232,0,0,0
 16:27:54.715,-1.27028,4.14584,-0.611627,0,0,0
 16:27:54.726,-1.2656,3.79957,-0.545702,0,0,0
 16:27:54.736,-1.25286,3.51275,-0.504506,0,0,0
 16:27:54.746,-1.24538,3.27936,-0.474923,0,0,0
 16:27:54.756,-1.2493,3.08235,-0.452832,0,0,0
 16:27:54.766,-1.26403,2.88891,-0.423633,0,0,0
 16:27:54.776,-1.28553,2.6837,-0.380817,0,0,0
 16:27:54.786,-1.30398,2.50408,-0.337268,0,0,0
 16:27:54.796,-1.32758,2.3442,-0.309554,0,0,0
 16:27:54.806,-1.35841,2.21388,-0.299035,0,0,0
 16:27:54.816,-1.39118,2.09068,-0.307307,0,0,0
 16:27:54.826,-1.41027,1.96488,-0.32969,0,0,0
 16:27:54.836,-1.41586,1.83213,-0.355593,0,0,0
 16:27:54.845,-1.40435,1.6866,-0.369253,0,0,0
 16:27:54.856,-1.37467,1.53627,-0.366367,0,0,0
 16:27:54.866,-1.33518,1.38351,-0.357246,0,0,0
 16:27:54.875,-1.30351,1.22915,-0.359919,0,0,0
 16:27:54.886,-1.29583,1.09226,-0.367029,0,0,0
 16:27:54.896,-1.31018,0.969731,-0.372216,0,0,0
 16:27:54.906,-1.33242,0.874803,-0.384521,0,0,0
 16:27:54.916,-1.36213,0.754814,-0.403215,0,0,0
 16:27:54.926,-1.39216,0.629979,-0.420001,0,0,0
 16:27:54.936,-1.42424,0.5064,-0.436749,0,0,0
 16:27:54.946,-1.41256,0.409551,-0.474773,0,0,0
 16:27:54.956,-1.39188,0.289497,-0.510862,0,0,0
 16:27:54.966,-1.36177,0.213677,-0.54067,0,0,0
 16:27:54.976,-1.34071,0.185436,-0.549438,0,0,0
 16:27:54.986,-1.33166,0.168524,-0.543684,0,0,0
 16:27:54.996,-1.32485,0.14528,-0.546979,0,0,0
 16:27:55.006,-1.30781,0.0924865,-0.570394,0,0,0
 16:27:55.016,-1.28771,0.0504,-0.60804,0,0,0
 16:27:55.026,-1.27861,-0.0519531,-0.647572,0,0,0
 16:27:55.036,-1.26788,-0.172866,-0.689651,0,0,0
 16:27:55.046,-1.25358,-0.257758,-0.737091,0,0,0
 16:27:55.056,-1.24553,-0.314692,-0.768539,0,0,0
 16:27:55.066,-1.24172,-0.385759,-0.797824,0,0,0
 16:27:55.076,-1.22661,-0.438189,-0.85326,0,0,0
 16:27:55.086,-1.20419,-0.488236,-0.927297,0,0,0
 16:27:55.096,-1.1769,-0.527471,-0.996226,0,0,0
 16:27:55.106,-1.14521,-0.529749,-1.04473,0,0,0
 16:27:55.116,-1.11391,-0.543756,-1.06676,0,0,0
 16:27:55.126,-1.07488,-0.564427,-1.07643,0,0,0
 16:27:55.136,-1.03833,-0.562098,-1.08048,0,0,0
 16:27:55.145,-1.01382,-0.573093,-1.06153,0,0,0
 16:27:55.156,-1.00758,-0.568958,-1.03325,0,0,0
 16:27:55.165,-1.01511,-0.541492,-1.02319,0,0,0
 16:27:55.176,-1.02847,-0.536818,-1.04307,0,0,0
 16:27:55.186,-1.03899,-0.577854,-1.07967,0,0,0
 16:27:55.196,-1.03096,-0.644379,-1.11088,0,0,0
 16:27:55.206,-1.01908,-0.708868,-1.13902,0,0,0
 16:27:55.216,-1.01809,-0.772716,-1.16718,0,0,0
 16:27:55.226,-0.954976,-0.87667,-1.15622,0,0,0
 16:27:55.236,-0.927555,-0.950531,-1.14137,0,0,0
 16:27:55.246,-0.948777,-0.971575,-1.14205,0,0,0
 16:27:55.255,-1.00357,-0.962554,-1.16463,0,0,0
 16:27:55.266,-1.06192,-0.961664,-1.18761,0,0,0
 16:27:55.276,-1.10552,-0.97828,-1.18401,0,0,0
 16:27:55.286,-1.11444,-1.00196,-1.14497,0,0,0
 16:27:55.296,-1.09557,-1.02455,-1.0852,0,0,0
 16:27:55.306,-1.07473,-1.04459,-1.01871,0,0,0
 16:27:55.315,-1.06527,-1.0613,-0.979002,0,0,0
 16:27:55.325,-1.07184,-1.03134,-0.988301,0,0,0
 16:27:55.336,-1.08527,-0.953968,-1.04052,0,0,0
 16:27:55.346,-1.10318,-0.875398,-1.11653,0,0,0
 16:27:55.356,-1.13113,-0.733393,-1.19471,0,0,0
 16:27:55.366,-1.18198,-0.48021,-1.25702,0,0,0
 16:27:55.376,-1.25154,-0.136499,-1.30152,0,0,0
 16:27:55.386,-1.32988,0.274347,-1.35344,0,0,0
 16:27:55.396,-1.40695,0.717336,-1.41736,0,0,0
 16:27:55.406,-1.46113,1.03425,-1.46499,0,0,0
 16:27:55.416,-1.46641,1.22586,-1.48639,0,0,0
 16:27:55.426,-1.45648,1.41414,-1.47157,0,0,0
 16:27:55.436,-1.44406,1.63289,-1.44186,0,0,0
 16:27:55.446,-1.43175,1.85453,-1.42177,0,0,0
 16:27:55.456,-1.42467,2.07083,-1.42768,0,0,0
 16:27:55.466,-1.42976,2.26921,-1.46055,0,0,0
 16:27:55.476,-1.43542,2.46774,-1.50418,0,0,0
 16:27:55.486,-1.44547,2.66429,-1.5478,0,0,0
 16:27:55.496,-1.40313,2.89307,-1.60273,0,0,0
 16:27:55.506,-1.34199,3.13553,-1.64404,0,0,0
 16:27:55.516,-1.29462,3.39208,-1.67267,0,0,0
 16:27:55.526,-1.27354,3.63017,-1.71173,0,0,0
 16:27:55.536,-1.2799,3.85388,-1.76323,0,0,0
 16:27:55.546,-1.30979,4.07612,-1.81346,0,0,0
 16:27:55.556,-1.35088,4.29291,-1.84385,0,0,0
 16:27:55.566,-1.38406,4.51525,-1.84531,0,0,0
 16:27:55.576,-1.4018,4.72489,-1.82441,0,0,0
 16:27:55.586,-1.4024,4.92486,-1.79563,0,0,0
 16:27:55.596,-1.38274,5.10542,-1.76774,0,0,0
 16:27:55.606,-1.36951,5.33742,-1.74448,0,0,0
 16:27:55.616,-1.37034,5.60085,-1.72849,0,0,0
 16:27:55.626,-1.38348,5.91504,-1.74503,0,0,0
 16:27:55.636,-1.40497,6.29776,-1.80665,0,0,0
 16:27:55.646,-1.41836,6.72648,-1.90934,0,0,0
 16:27:55.656,-1.40986,7.20881,-2.02829,0,0,0
 16:27:55.666,-1.37868,7.68237,-2.13912,0,0,0
 16:27:55.676,-1.32932,8.08697,-2.22716,0,0,0
 16:27:55.686,-1.27865,8.43428,-2.28343,0,0,0
 16:27:55.696,-1.23982,8.77369,-2.31212,0,0,0
 16:27:55.706,-1.21672,9.12563,-2.33769,0,0,0
 16:27:55.716,-1.18971,9.48922,-2.3725,0,0,0
 16:27:55.726,-1.15436,9.83801,-2.42655,0,0,0
 16:27:55.736,-1.10173,10.1765,-2.49899,0,0,0
 16:27:55.746,-1.03596,10.5134,-2.58329,0,0,0
 16:27:55.756,-0.9744,10.8469,-2.66719,0,0,0
 16:27:55.766,-0.913271,11.1632,-2.73855,0,0,0
 16:27:55.776,-0.855365,11.5005,-2.79749,0,0,0
 16:27:55.786,-0.805,11.8982,-2.85065,0,0,0
 16:27:55.796,-0.757311,12.3301,-2.91184,0,0,0
 16:27:55.806,-0.717739,12.7718,-2.96649,0,0,0
 16:27:55.816,-0.682393,13.1696,-3.01134,0,0,0
 16:27:55.826,-0.643371,13.4995,-3.0468,0,0,0
 16:27:55.836,-0.612664,13.7801,-3.07345,0,0,0
 16:27:55.846,-0.576548,14.0227,-3.09113,0,0,0
 16:27:55.856,-0.538093,14.2672,-3.11221,0,0,0
 16:27:55.866,-0.487751,14.5087,-3.14613,0,0,0
 16:27:55.876,-0.415459,14.7456,-3.19399,0,0,0
 16:27:55.886,-0.33273,15.0174,-3.24953,0,0,0
 16:27:55.895,-0.259783,15.3362,-3.31216,0,0,0
 16:27:55.906,-0.202595,15.6805,-3.38581,0,0,0
 16:27:55.916,-0.15424,16.0347,-3.461,0,0,0
 16:27:55.926,-0.111016,16.3785,-3.52037,0,0,0
 16:27:55.935,-0.065099,16.6965,-3.55854,0,0,0
 16:27:55.946,-0.00915862,17.0073,-3.58756,0,0,0
 16:27:55.956,0.044487,17.3613,-3.61755,0,0,0
 16:27:55.966,0.0877305,17.7551,-3.6578,0,0,0
 16:27:55.976,0.120404,18.1292,-3.70815,0,0,0
 16:27:55.986,0.140319,18.4587,-3.76297,0,0,0
 16:27:55.996,0.168238,18.7534,-3.81579,0,0,0
 16:27:56.006,0.200934,19.069,-3.85913,0,0,0
 16:27:56.016,0.228535,19.4468,-3.89241,0,0,0
 16:27:56.026,0.256653,19.8209,-3.92555,0,0,0
 16:27:56.036,0.277287,20.2523,-4.01208,0,0,0
 16:27:56.046,0.314806,20.6815,-4.12519,0,0,0
 16:27:56.056,0.362252,21.1081,-4.22399,0,0,0
 16:27:56.066,0.404425,21.5649,-4.2834,0,0,0
 16:27:56.076,0.441296,22.0368,-4.31458,0,0,0
 16:27:56.086,0.490265,22.5327,-4.33772,0,0,0
 16:27:56.095,0.571618,23.0588,-4.38828,0,0,0
 16:27:56.106,0.699028,23.5733,-4.45846,0,0,0
 16:27:56.116,0.842243,24.0568,-4.52776,0,0,0
 16:27:56.126,0.981258,24.4984,-4.59562,0,0,0
 16:27:56.136,1.1078,24.9253,-4.66963,0,0,0
 16:27:56.146,1.20715,25.3712,-4.74654,0,0,0
 16:27:56.156,1.28245,25.8173,-4.81196,0,0,0
 16:27:56.166,1.33773,26.2093,-4.85634,0,0,0
 16:27:56.176,1.38854,26.5355,-4.88316,0,0,0
 16:27:56.185,1.44104,26.8011,-4.9065,0,0,0
 16:27:56.196,1.49052,27.0244,-4.9309,0,0,0
 16:27:56.206,1.53324,27.2268,-4.94448,0,0,0
 16:27:56.216,1.55879,27.4133,-4.93865,0,0,0
 16:27:56.226,1.56031,27.5833,-4.91389,0,0,0
 16:27:56.236,1.53084,27.7573,-4.88377,0,0,0
 16:27:56.245,1.47,27.9478,-4.8712,0,0,0
 16:27:56.256,1.39763,28.1314,-4.87687,0,0,0
 16:27:56.266,1.32314,28.3276,-4.88453,0,0,0
 16:27:56.275,1.25679,28.5476,-4.87808,0,0,0
 16:27:56.286,1.18601,28.7804,-4.86167,0,0,0
 16:27:56.296,1.12479,28.9815,-4.84648,0,0,0
 16:27:56.306,1.06696,29.1744,-4.83117,0,0,0
 16:27:56.316,1.07383,29.3635,-4.8205,0,0,0
 16:27:56.326,1.09261,29.5974,-4.80918,0,0,0
 16:27:56.336,1.10643,29.8568,-4.79977,0,0,0
 16:27:56.346,1.10493,30.0861,-4.80331,0,0,0
 16:27:56.356,1.09013,30.2769,-4.82282,0,0,0
 16:27:56.366,1.06654,30.4609,-4.85209,0,0,0
 16:27:56.376,1.05052,30.6513,-4.87857,0,0,0
 16:27:56.386,1.06723,30.8656,-4.90021,0,0,0
 16:27:56.396,1.12432,31.1233,-4.92059,0,0,0
 16:27:56.406,1.2007,31.4172,-4.94401,0,0,0
 16:27:56.416,1.26771,31.7846,-4.96463,0,0,0
 16:27:56.426,1.30778,32.1474,-4.95445,0,0,0
 16:27:56.436,1.31539,32.4653,-4.91351,0,0,0
 16:27:56.446,1.31601,32.7469,-4.86865,0,0,0
 16:27:56.455,1.31763,33.0049,-4.8458,0,0,0
 16:27:56.466,1.32161,33.2561,-4.84858,0,0,0
 16:27:56.476,1.33102,33.5048,-4.86578,0,0,0
 16:27:56.486,1.33613,33.8182,-4.89835,0,0,0
 16:27:56.496,1.34087,34.1529,-4.9273,0,0,0
 16:27:56.506,1.34512,34.4628,-4.9456,0,0,0
 16:27:56.516,1.35597,34.7374,-4.94768,0,0,0
 16:27:56.526,1.36658,34.9907,-4.93032,0,0,0
 16:27:56.536,1.36645,35.2274,-4.89883,0,0,0
 16:27:56.546,1.37592,35.3975,-4.87366,0,0,0
 16:27:56.556,1.3708,35.5222,-4.85664,0,0,0
 16:27:56.566,1.35119,35.6347,-4.85161,0,0,0
 16:27:56.575,1.32341,35.7356,-4.84792,0,0,0
 16:27:56.586,1.28973,35.8355,-4.84429,0,0,0
 16:27:56.596,1.19358,35.9655,-4.78788,0,0,0
 16:27:56.606,1.09392,36.1157,-4.72095,0,0,0
 16:27:56.616,1.00028,36.2437,-4.65796,0,0,0
 16:27:56.626,0.910016,36.3432,-4.60952,0,0,0
 16:27:56.636,0.823751,36.4248,-4.56232,0,0,0
 16:27:56.646,0.737896,36.4676,-4.50731,0,0,0
 16:27:56.656,0.672394,36.5257,-4.46432,0,0,0
 16:27:56.666,0.631428,36.567,-4.44279,0,0,0
 16:27:56.676,0.630133,36.5896,-4.45807,0,0,0
 16:27:56.685,0.659596,36.6695,-4.51209,0,0,0
 16:27:56.696,0.701576,36.7911,-4.56392,0,0,0
 16:27:56.706,0.734625,36.8975,-4.58876,0,0,0
 16:27:56.716,0.752794,37.0126,-4.59966,0,0,0
 16:27:56.726,0.747437,37.1611,-4.58327,0,0,0
 16:27:56.736,0.71253,37.2841,-4.53077,0,0,0
 16:27:56.746,0.664911,37.318,-4.45138,0,0,0
 16:27:56.756,0.619264,37.2631,-4.37355,0,0,0
 16:27:56.766,0.592685,37.1461,-4.33952,0,0,0
 16:27:56.775,0.58486,37.0059,-4.35228,0,0,0
 16:27:56.786,0.581908,36.8541,-4.38444,0,0,0
 16:27:56.796,0.565221,36.6699,-4.40378,0,0,0
 16:27:56.806,0.536474,36.4571,-4.41896,0,0,0
 16:27:56.816,0.510301,36.2151,-4.43364,0,0,0
 16:27:56.826,0.502139,35.896,-4.45428,0,0,0
 16:27:56.836,0.511252,35.5289,-4.47739,0,0,0
 16:27:56.845,0.519592,35.1455,-4.49616,0,0,0
 16:27:56.856,0.523794,34.7659,-4.515,0,0,0
 16:27:56.866,0.458024,34.3113,-4.54658,0,0,0
 16:27:56.877,0.345973,33.8909,-4.56701,0,0,0
 16:27:56.886,0.241103,33.5119,-4.55574,0,0,0
 16:27:56.896,0.161338,33.1021,-4.51853,0,0,0
 16:27:56.906,0.116267,32.6473,-4.47538,0,0,0
 16:27:56.916,0.118072,32.2265,-4.46254,0,0,0
 16:27:56.925,0.164154,31.8089,-4.4954,0,0,0
 16:27:56.936,0.247733,31.3823,-4.56433,0,0,0
 16:27:56.946,0.33469,31.015,-4.64048,0,0,0
 16:27:56.956,0.400108,30.7389,-4.69267,0,0,0
 16:27:56.966,0.444686,30.4992,-4.70665,0,0,0
 16:27:56.976,0.474289,30.2891,-4.69671,0,0,0
 16:27:56.986,0.489785,30.101,-4.67876,0,0,0
 16:27:56.996,0.4925,29.9091,-4.65887,0,0,0
 16:27:57.005,0.489682,29.7107,-4.65381,0,0,0
 16:27:57.016,0.490801,29.505,-4.66937,0,0,0
 16:27:57.026,0.490398,29.2749,-4.68184,0,0,0
 16:27:57.036,0.483471,28.9834,-4.67367,0,0,0
 16:27:57.045,0.47067,28.6108,-4.65407,0,0,0
 16:27:57.055,0.471472,28.2264,-4.65455,0,0,0
 16:27:57.065,0.506772,27.8372,-4.69536,0,0,0
 16:27:57.075,0.579413,27.4133,-4.78424,0,0,0
 16:27:57.086,0.679782,26.9324,-4.90826,0,0,0
 16:27:57.096,0.777034,26.4303,-5.0429,0,0,0
 16:27:57.106,0.820519,25.9645,-5.14939,0,0,0
 16:27:57.116,0.817801,25.5269,-5.21181,0,0,0
 16:27:57.126,0.819443,25.0938,-5.27424,0,0,0
 16:27:57.136,0.706655,24.771,-5.24339,0,0,0
 16:27:57.146,0.618386,24.4412,-5.22113,0,0,0
 16:27:57.155,0.560663,24.101,-5.20572,0,0,0
 16:27:57.166,0.534222,23.8005,-5.18112,0,0,0
 16:27:57.176,0.529232,23.5337,-5.14876,0,0,0
 16:27:57.186,0.539455,23.2564,-5.12276,0,0,0
 16:27:57.196,0.550625,22.941,-5.11647,0,0,0
 16:27:57.206,0.56823,22.6296,-5.12968,0,0,0
 16:27:57.216,0.584751,22.3449,-5.1603,0,0,0
 16:27:57.225,0.589192,22.0785,-5.18685,0,0,0
 16:27:57.236,0.58816,21.8038,-5.18982,0,0,0
 16:27:57.246,0.556811,21.5581,-5.15818,0,0,0
 16:27:57.256,0.494897,21.3136,-5.09337,0,0,0
 16:27:57.266,0.427779,21.0034,-5.00219,0,0,0
 16:27:57.276,0.367947,20.6315,-4.92366,0,0,0
 16:27:57.286,0.3399,20.2103,-4.88215,0,0,0
 16:27:57.296,0.33525,19.7948,-4.88321,0,0,0
 16:27:57.305,0.357206,19.4037,-4.91603,0,0,0
 16:27:57.316,0.381773,19.0533,-4.96654,0,0,0
 16:27:57.326,0.387602,18.7286,-5.01521,0,0,0
 16:27:57.336,0.375763,18.4631,-5.05909,0,0,0
 16:27:57.346,0.361143,18.2311,-5.10032,0,0,0
 16:27:57.356,0.348289,17.9918,-5.1394,0,0,0
 16:27:57.366,0.327664,17.7274,-5.17046,0,0,0
 16:27:57.375,0.302731,17.4111,-5.18276,0,0,0
 16:27:57.386,0.266103,17.0597,-5.18857,0,0,0
 16:27:57.396,0.229285,16.7081,-5.19431,0,0,0
 16:27:57.405,0.193374,16.36,-5.19983,0,0,0
 16:27:57.415,0.165086,16.0653,-5.18755,0,0,0
 16:27:57.426,0.117191,15.7694,-5.14565,0,0,0
 16:27:57.436,0.0503364,15.4576,-5.08513,0,0,0
 16:27:57.446,-0.0263069,15.1209,-5.0238,0,0,0
 16:27:57.456,-0.092575,14.7674,-4.98371,0,0,0
 16:27:57.466,-0.142221,14.4084,-4.96764,0,0,0
 16:27:57.476,-0.171511,14.0234,-4.96854,0,0,0
 16:27:57.486,-0.19315,13.6109,-4.96819,0,0,0
 16:27:57.496,-0.237053,13.2523,-4.95082,0,0,0
 16:27:57.506,-0.301112,12.9055,-4.91804,0,0,0
 16:27:57.516,-0.366221,12.5489,-4.87689,0,0,0
 16:27:57.526,-0.414066,12.1713,-4.83012,0,0,0
 16:27:57.535,-0.468884,11.7792,-4.76701,0,0,0
 16:27:57.546,-0.523046,11.3649,-4.69249,0,0,0
 16:27:57.556,-0.572439,10.9435,-4.62623,0,0,0
 16:27:57.566,-0.618983,10.5255,-4.56532,0,0,0
 16:27:57.576,-0.660636,10.0832,-4.51011,0,0,0
 16:27:57.586,-0.684591,9.608,-4.45835,0,0,0
 16:27:57.595,-0.693821,9.11697,-4.39481,0,0,0
 16:27:57.606,-0.716961,8.63941,-4.29372,0,0,0
 16:27:57.616,-0.774673,8.20697,-4.16789,0,0,0
 16:27:57.626,-0.854032,7.8093,-4.03845,0,0,0
 16:27:57.636,-0.938797,7.42743,-3.92515,0,0,0
 16:27:57.646,-1.00972,7.04708,-3.83095,0,0,0
 16:27:57.656,-1.05764,6.6878,-3.76084,0,0,0
 16:27:57.666,-1.11292,6.33206,-3.69042,0,0,0
 16:27:57.676,-1.14912,5.97454,-3.62697,0,0,0
 16:27:57.686,-1.15316,5.60263,-3.56719,0,0,0
 16:27:57.696,-1.16537,5.2582,-3.49787,0,0,0
 16:27:57.706,-1.20207,4.92357,-3.42569,0,0,0
 16:27:57.715,-1.24855,4.59058,-3.36772,0,0,0
 16:27:57.726,-1.30571,4.26849,-3.32123,0,0,0
 16:27:57.736,-1.36918,3.95394,-3.26889,0,0,0
 16:27:57.746,-1.42619,3.62971,-3.21139,0,0,0
 16:27:57.756,-1.47973,3.28235,-3.15323,0,0,0
 16:27:57.766,-1.52282,2.94298,-3.10651,0,0,0
 16:27:57.776,-1.54963,2.60892,-3.07331,0,0,0
 16:27:57.786,-1.55729,2.28411,-3.06374,0,0,0
 16:27:57.796,-1.55994,1.97739,-3.07494,0,0,0
 16:27:57.805,-1.56412,1.67714,-3.09671,0,0,0
 16:27:57.815,-1.56969,1.37426,-3.11517,0,0,0
 16:27:57.826,-1.55934,1.08491,-3.13249,0,0,0
 16:27:57.836,-1.52236,0.795698,-3.14619,0,0,0
 16:27:57.846,-1.46074,0.508904,-3.15533,0,0,0
 16:27:57.856,-1.38699,0.233924,-3.16791,0,0,0
 16:27:57.866,-1.31683,-0.0479007,-3.19543,0,0,0
 16:27:57.875,-1.25948,-0.348022,-3.2597,0,0,0
 16:27:57.885,-1.21109,-0.641607,-3.35261,0,0,0
 16:27:57.896,-1.15824,-0.902023,-3.44107,0,0,0
 16:27:57.906,-1.10874,-1.15432,-3.48709,0,0,0
 16:27:57.916,-1.05665,-1.40465,-3.49036,0,0,0
 16:27:57.926,-0.988257,-1.62701,-3.49591,0,0,0
 16:27:57.936,-0.902217,-1.77752,-3.51277,0,0,0
 16:27:57.946,-0.813415,-1.87281,-3.53628,0,0,0
 16:27:57.956,-0.727369,-1.96183,-3.56169,0,0,0
 16:27:57.966,-0.639964,-2.05,-3.58724,0,0,0
 16:27:57.976,-0.618559,-2.02863,-3.59808,0,0,0
 16:27:57.986,-0.620159,-1.96135,-3.61553,0,0,0
 16:27:57.996,-0.623398,-1.87192,-3.64243,0,0,0
 16:27:58.006,-0.611886,-1.74531,-3.67314,0,0,0
 16:27:58.016,-0.603316,-1.58551,-3.69778,0,0,0
 16:27:58.026,-0.605011,-1.40069,-3.72203,0,0,0
 16:27:58.036,-0.613618,-1.15729,-3.76473,0,0,0
 16:27:58.046,-0.622835,-0.860455,-3.82562,0,0,0
 16:27:58.056,-0.636247,-0.548564,-3.88654,0,0,0
 16:27:58.066,-0.646708,-0.204078,-3.94069,0,0,0
 16:27:58.076,-0.642983,0.156192,-3.98704,0,0,0
 16:27:58.086,-0.620357,0.562566,-4.02867,0,0,0
 16:27:58.096,-0.584852,0.94145,-4.07454,0,0,0
 16:27:58.106,-0.551663,1.31146,-4.12126,0,0,0
 16:27:58.116,-0.527648,1.71599,-4.17676,0,0,0
 16:27:58.126,-0.522667,2.17008,-4.2412,0,0,0
 16:27:58.136,-0.535446,2.69057,-4.33268,0,0,0
 16:27:58.146,-0.562597,3.21971,-4.42408,0,0,0
 16:27:58.156,-0.582349,3.72971,-4.49857,0,0,0
 16:27:58.165,-0.565622,4.21682,-4.57717,0,0,0
 16:27:58.176,-0.500555,4.68821,-4.66497,0,0,0
 16:27:58.186,-0.416448,5.17749,-4.75464,0,0,0
 16:27:58.196,-0.328313,5.69611,-4.84831,0,0,0
 16:27:58.206,-0.26019,6.21926,-4.94325,0,0,0
 16:27:58.216,-0.218282,6.72742,-5.02934,0,0,0
 16:27:58.225,-0.194542,7.16954,-5.1025,0,0,0
 16:27:58.236,-0.160248,7.60721,-5.17544,0,0,0
 16:27:58.246,-0.0729176,8.07244,-5.27661,0,0,0
 16:27:58.256,0.0389585,8.59125,-5.3855,0,0,0
 16:27:58.265,0.134508,9.13045,-5.49068,0,0,0
 16:27:58.276,0.184754,9.64825,-5.58655,0,0,0
 16:27:58.286,0.175289,10.0921,-5.68381,0,0,0
 16:27:58.295,0.12973,10.4792,-5.78372,0,0,0
 16:27:58.306,0.0700832,10.8252,-5.88311,0,0,0
 16:27:58.316,0.0252868,11.1233,-5.97606,0,0,0
 16:27:58.326,0.00535102,11.4145,-6.0514,0,0,0
 16:27:58.336,0.0168832,11.7127,-6.10346,0,0,0
 16:27:58.346,0.0621064,12.0052,-6.15273,0,0,0
 16:27:58.356,0.124701,12.3362,-6.20938,0,0,0
 16:27:58.366,0.173845,12.6452,-6.27453,0,0,0
 16:27:58.376,0.20221,12.9509,-6.35048,0,0,0
 16:27:58.386,0.214562,13.2749,-6.45258,0,0,0
 16:27:58.396,0.223663,13.585,-6.58266,0,0,0
 16:27:58.406,0.249719,13.8798,-6.73705,0,0,0
 16:27:58.416,0.280756,14.2129,-6.89912,0,0,0
 16:27:58.426,0.311386,14.5483,-7.04325,0,0,0
 16:27:58.436,0.335605,14.827,-7.1378,0,0,0
 16:27:58.446,0.33907,15.0564,-7.16511,0,0,0
 16:27:58.456,0.321518,15.2663,-7.13874,0,0,0
 16:27:58.466,0.308972,15.4781,-7.10397,0,0,0
 16:27:58.476,0.293539,15.7255,-7.08746,0,0,0
 16:27:58.486,0.266217,15.9902,-7.0793,0,0,0
 16:27:58.496,0.219319,16.2089,-7.06963,0,0,0
 16:27:58.506,0.162292,16.4084,-7.04699,0,0,0
 16:27:58.515,0.11089,16.6058,-7.02453,0,0,0
 16:27:58.526,0.0862185,16.8299,-7.01542,0,0,0
 16:27:58.536,0.0741781,17.1116,-7.0124,0,0,0
 16:27:58.546,0.0664333,17.4503,-7.00285,0,0,0
 16:27:58.556,0.0490727,17.7866,-6.98387,0,0,0
 16:27:58.566,0.0268593,18.1144,-6.97632,0,0,0
 16:27:58.576,0.0132901,18.4495,-6.99762,0,0,0
 16:27:58.586,0.000250025,18.794,-7.04638,0,0,0
 16:27:58.596,-0.0167329,19.1948,-7.11326,0,0,0
 16:27:58.605,-0.0338708,19.6992,-7.15701,0,0,0
 16:27:58.616,-0.0591033,20.2708,-7.12178,0,0,0
 16:27:58.625,-0.0883914,20.8818,-7.01033,0,0,0
 16:27:58.636,-0.106409,21.5384,-6.84183,0,0,0
 16:27:58.646,-0.0916055,22.1765,-6.66828,0,0,0
 16:27:58.656,-0.054346,22.7702,-6.54073,0,0,0
 16:27:58.666,-0.00777937,23.3419,-6.49226,0,0,0
 16:27:58.676,0.0297451,23.9468,-6.52107,0,0,0
 16:27:58.685,0.0398676,24.5843,-6.59998,0,0,0
 16:27:58.696,0.0314513,25.2034,-6.70178,0,0,0
 16:27:58.706,0.0197908,25.7451,-6.79996,0,0,0
 16:27:58.716,0.0237384,26.2277,-6.89292,0,0,0
 16:27:58.726,0.0341868,26.7058,-6.96511,0,0,0
 16:27:58.736,0.0426754,27.1538,-7.01986,0,0,0
 16:27:58.746,0.0466829,27.5908,-7.06923,0,0,0
 16:27:58.756,0.0512341,28.0085,-7.10654,0,0,0
 16:27:58.766,0.0504345,28.3792,-7.11788,0,0,0
 16:27:58.776,0.0518472,28.7073,-7.10691,0,0,0
 16:27:58.786,0.0668227,28.9971,-7.08225,0,0,0
 16:27:58.796,0.0815248,29.284,-7.05752,0,0,0
 16:27:58.806,0.097685,29.5681,-7.03272,0,0,0
 16:27:58.816,0.129699,29.7449,-7.02359,0,0,0
 16:27:58.826,0.176504,29.8758,-7.04086,0,0,0
 16:27:58.836,0.219967,30.0016,-7.08494,0,0,0
 16:27:58.846,0.247469,30.1452,-7.14001,0,0,0
 16:27:58.856,0.26056,30.2775,-7.18251,0,0,0
 16:27:58.866,0.284049,30.4338,-7.21656,0,0,0
 16:27:58.876,0.31494,30.606,-7.23027,0,0,0
 16:27:58.886,0.33286,30.8087,-7.2319,0,0,0
 16:27:58.895,0.334246,31.0424,-7.23663,0,0,0
 16:27:58.906,0.315009,31.2335,-7.24122,0,0,0
 16:27:58.916,0.285397,31.4366,-7.25448,0,0,0
 16:27:58.926,0.256395,31.6438,-7.26826,0,0,0
 16:27:58.936,0.226657,31.8725,-7.27724,0,0,0
 16:27:58.946,0.212431,32.1619,-7.2975,0,0,0
 16:27:58.956,0.210789,32.508,-7.32992,0,0,0
 16:27:58.966,0.221702,32.8934,-7.36095,0,0,0
 16:27:58.976,0.218217,33.2694,-7.35698,0,0,0
 16:27:58.986,0.190479,33.6202,-7.32729,0,0,0
 16:27:58.996,0.16008,33.9474,-7.30042,0,0,0
 16:27:59.006,0.129777,34.2824,-7.28181,0,0,0
 16:27:59.016,0.0809884,34.6034,-7.25078,0,0,0
 16:27:59.026,0.0183105,34.8781,-7.20434,0,0,0
 16:27:59.036,-0.0403238,35.0615,-7.16627,0,0,0
 16:27:59.046,-0.0948799,35.2071,-7.14812,0,0,0
 16:27:59.056,-0.151596,35.3709,-7.141,0,0,0
 16:27:59.066,-0.204634,35.5494,-7.14213,0,0,0
 16:27:59.076,-0.257139,35.7262,-7.14343,0,0,0
 16:27:59.086,-0.304205,35.9047,-7.14909,0,0,0
 16:27:59.096,-0.357207,36.0813,-7.15489,0,0,0
 16:27:59.106,-0.38849,36.1661,-7.18317,0,0,0
 16:27:59.116,-0.385394,36.2484,-7.22189,0,0,0
 16:27:59.126,-0.344626,36.332,-7.26903,0,0,0
 16:27:59.136,-0.285665,36.397,-7.31441,0,0,0
 16:27:59.146,-0.245685,36.452,-7.33846,0,0,0
 16:27:59.155,-0.22911,36.5035,-7.34345,0,0,0
 16:27:59.166,-0.24525,36.5625,-7.32792,0,0,0
 16:27:59.176,-0.274622,36.6604,-7.30052,0,0,0
 16:27:59.186,-0.298764,36.7893,-7.28134,0,0,0
 16:27:59.196,-0.281557,36.9572,-7.28215,0,0,0
 16:27:59.206,-0.220127,37.134,-7.30068,0,0,0
 16:27:59.216,-0.14458,37.3195,-7.31322,0,0,0
 16:27:59.225,-0.0831373,37.5308,-7.2979,0,0,0
 16:27:59.236,-0.0474071,37.733,-7.25791,0,0,0
 16:27:59.246,-0.0134202,37.9582,-7.21608,0,0,0
 16:27:59.256,0.0105396,38.188,-7.18289,0,0,0
 16:27:59.266,0.0335809,38.4249,-7.16241,0,0,0
 16:27:59.276,0.0685323,38.6807,-7.1635,0,0,0
 16:27:59.285,0.114176,38.9501,-7.17788,0,0,0
 16:27:59.296,0.176755,39.2224,-7.20635,0,0,0
 16:27:59.306,0.255498,39.4921,-7.24741,0,0,0
 16:27:59.316,0.319563,39.7008,-7.28925,0,0,0
 16:27:59.325,0.362275,39.8892,-7.32589,0,0,0
 16:27:59.336,0.401017,40.0523,-7.35894,0,0,0
 16:27:59.345,0.444452,40.2274,-7.39623,0,0,0
 16:27:59.356,0.481814,40.4286,-7.42263,0,0,0
 16:27:59.365,0.497991,40.6432,-7.43842,0,0,0
 16:27:59.376,0.503323,40.8701,-7.45098,0,0,0
 16:27:59.386,0.515621,41.0947,-7.46354,0,0,0
 16:27:59.396,0.593883,41.3679,-7.51859,0,0,0
 16:27:59.406,0.683228,41.6406,-7.59007,0,0,0
 16:27:59.416,0.730336,41.9213,-7.63597,0,0,0
 16:27:59.426,0.734207,42.191,-7.64017,0,0,0
 16:27:59.436,0.716693,42.4432,-7.62138,0,0,0
 16:27:59.446,0.710428,42.6836,-7.60883,0,0,0
 16:27:59.456,0.722495,42.921,-7.61837,0,0,0
 16:27:59.466,0.73314,43.1857,-7.64524,0,0,0
 16:27:59.476,0.73063,43.4686,-7.67787,0,0,0
 16:27:59.486,0.704619,43.7777,-7.699,0,0,0
 16:27:59.496,0.659973,44.0829,-7.71117,0,0,0
 16:27:59.506,0.62591,44.3937,-7.72665,0,0,0
 16:27:59.516,0.611476,44.7061,-7.75566,0,0,0
 16:27:59.526,0.608361,45.005,-7.79003,0,0,0
 16:27:59.536,0.582186,45.262,-7.78795,0,0,0
 16:27:59.546,0.505559,45.5143,-7.73943,0,0,0
 16:27:59.556,0.365339,45.7689,-7.64625,0,0,0
 16:27:59.566,0.17112,46.0228,-7.53597,0,0,0
 16:27:59.576,-0.0442248,46.2865,-7.43931,0,0,0
 16:27:59.586,-0.256255,46.5791,-7.36258,0,0,0
 16:27:59.596,-0.458795,46.883,-7.29548,0,0,0
 16:27:59.606,-0.632297,47.18,-7.23479,0,0,0
 16:27:59.616,-0.761099,47.4271,-7.18821,0,0,0
 16:27:59.626,-0.848575,47.633,-7.15388,0,0,0
 16:27:59.636,-0.917891,47.8146,-7.11804,0,0,0
 16:27:59.646,-0.960695,47.9895,-7.09078,0,0,0
 16:27:59.656,-0.997609,48.1611,-7.06438,0,0,0
 16:27:59.666,-1.0348,48.3311,-7.03806,0,0,0
 16:27:59.675,-1.20377,48.6714,-6.8989,0,0,0
 16:27:59.685,-1.4305,48.9964,-6.74226,0,0,0
 16:27:59.695,-1.66764,49.3191,-6.5961,0,0,0
 16:27:59.705,-1.88126,49.6243,-6.47512,0,0,0
 16:27:59.715,-2.05703,49.905,-6.38326,0,0,0
 16:27:59.726,-2.20214,50.2065,-6.30932,0,0,0
 16:27:59.736,-2.32392,50.5142,-6.24901,0,0,0
 16:27:59.746,-2.42632,50.7859,-6.21778,0,0,0
 16:27:59.756,-2.51916,51.0562,-6.21618,0,0,0
 16:27:59.766,-2.6033,51.3418,-6.23907,0,0,0
 16:27:59.776,-2.69002,51.7068,-6.27222,0,0,0
 16:27:59.786,-2.77947,52.1418,-6.29781,0,0,0
 16:27:59.796,-2.88229,52.5888,-6.29762,0,0,0
 16:27:59.805,-3.00822,53.0213,-6.2495,0,0,0
 16:27:59.815,-3.16154,53.4326,-6.17599,0,0,0
 16:27:59.825,-3.34113,53.8413,-6.10893,0,0,0
 16:27:59.836,-3.53359,54.2301,-6.06625,0,0,0
 16:27:59.846,-3.71345,54.6038,-6.05394,0,0,0
 16:27:59.855,-3.87602,54.9752,-6.04447,0,0,0
 16:27:59.865,-4.02401,55.3096,-6.01495,0,0,0
 16:27:59.875,-4.16776,55.6005,-5.95103,0,0,0
 16:27:59.886,-4.31294,55.836,-5.85935,0,0,0
 16:27:59.896,-4.44509,56.0436,-5.75392,0,0,0
 16:27:59.906,-4.56279,56.2473,-5.64321,0,0,0
 16:27:59.916,-4.67885,56.4379,-5.52822,0,0,0
 16:27:59.926,-4.81439,56.5984,-5.40792,0,0,0
 16:27:59.936,-4.94891,56.757,-5.28782,0,0,0
 16:27:59.946,-5.07336,56.9138,-5.16793,0,0,0
 16:27:59.955,-5.24476,57.1332,-5.08196,0,0,0
 16:27:59.966,-5.41565,57.4143,-4.97948,0,0,0
 16:27:59.976,-5.59681,57.6759,-4.8873,0,0,0
 16:27:59.985,-5.75198,57.9236,-4.8173,0,0,0
 16:27:59.996,-5.84049,58.1545,-4.75384,0,0,0
 16:28:00.005,-5.84731,58.3389,-4.6889,0,0,0
 16:28:00.016,-5.78229,58.4757,-4.62721,0,0,0
 16:28:00.026,-5.67287,58.59,-4.57506,0,0,0
 16:28:00.036,-5.54754,58.6843,-4.5362,0,0,0
 16:28:00.046,-5.43634,58.7639,-4.51446,0,0,0
 16:28:00.056,-5.38551,58.9121,-4.4907,0,0,0
 16:28:00.065,-5.39915,59.0694,-4.45612,0,0,0
 16:28:00.075,-5.44757,59.2012,-4.41297,0,0,0
 16:28:00.085,-5.49205,59.3324,-4.36398,0,0,0
 16:28:00.095,-5.51649,59.4914,-4.33032,0,0,0
 16:28:00.106,-5.52688,59.6734,-4.30852,0,0,0
 16:28:00.115,-5.52311,59.8827,-4.28827,0,0,0
 16:28:00.126,-5.50564,60.1081,-4.26228,0,0,0
 16:28:00.136,-5.46842,60.3251,-4.24977,0,0,0
 16:28:00.146,-5.41912,60.527,-4.24574,0,0,0
 16:28:00.156,-5.37185,60.6861,-4.25349,0,0,0
 16:28:00.166,-5.34406,60.8463,-4.27445,0,0,0
 16:28:00.175,-5.32406,61.0202,-4.2945,0,0,0
 16:28:00.186,-5.33068,61.2556,-4.30085,0,0,0
 16:28:00.196,-5.37616,61.5212,-4.27753,0,0,0
 16:28:00.206,-5.4283,61.7383,-4.24919,0,0,0
 16:28:00.216,-5.4806,61.9379,-4.21996,0,0,0
 16:28:00.226,-5.52711,62.1355,-4.19069,0,0,0
 16:28:00.236,-5.48289,62.0707,-4.20981,0,0,0
 16:28:00.245,-5.39943,61.9789,-4.26775,0,0,0
 16:28:00.256,-5.31081,61.9158,-4.33669,0,0,0
 16:28:00.266,-5.26014,61.8627,-4.38695,0,0,0
 16:28:00.275,-5.25282,61.799,-4.41871,0,0,0
 16:28:00.287,-5.27576,61.7161,-4.43795,0,0,0
 16:28:00.296,-5.30606,61.6189,-4.44372,0,0,0
 16:28:00.306,-5.31376,61.5009,-4.42931,0,0,0
 16:28:00.316,-5.29919,61.3562,-4.3942,0,0,0
 16:28:00.325,-5.25493,61.1756,-4.35493,0,0,0
 16:28:00.336,-5.18912,60.9744,-4.30953,0,0,0
 16:28:00.346,-5.09678,60.7486,-4.26963,0,0,0
 16:28:00.356,-4.97067,60.4782,-4.25366,0,0,0
 16:28:00.366,-4.79878,60.202,-4.25284,0,0,0
 16:28:00.376,-4.5887,59.929,-4.26388,0,0,0
 16:28:00.386,-4.35231,59.6558,-4.27751,0,0,0
 16:28:00.396,-4.08491,59.3908,-4.28813,0,0,0
 16:28:00.406,-3.85075,59.1093,-4.3308,0,0,0
 16:28:00.416,-3.65528,58.8258,-4.40899,0,0,0
 16:28:00.426,-3.49115,58.5153,-4.47304,0,0,0
 16:28:00.436,-3.3207,58.1672,-4.49507,0,0,0
 16:28:00.446,-3.1372,57.8054,-4.45968,0,0,0
 16:28:00.456,-2.9705,57.4554,-4.38867,0,0,0
 16:28:00.466,-2.82898,57.1007,-4.30257,0,0,0
 16:28:00.476,-2.72674,56.7314,-4.2253,0,0,0
 16:28:00.486,-2.66633,56.3618,-4.17539,0,0,0
 16:28:00.495,-2.62391,55.9877,-4.1414,0,0,0
 16:28:00.506,-2.57556,55.6174,-4.10791,0,0,0
 16:28:00.515,-2.49644,55.2234,-4.13576,0,0,0
 16:28:00.526,-2.39382,54.8467,-4.14752,0,0,0
 16:28:00.536,-2.26996,54.461,-4.10957,0,0,0
 16:28:00.546,-2.11467,54.0166,-4.01473,0,0,0
 16:28:00.556,-1.92824,53.5283,-3.90064,0,0,0
 16:28:00.566,-1.73406,53.0249,-3.78777,0,0,0
 16:28:00.576,-1.5617,52.5512,-3.68567,0,0,0
 16:28:00.586,-1.44352,52.1069,-3.61667,0,0,0
 16:28:00.595,-1.4039,51.7023,-3.58581,0,0,0
 16:28:00.606,-1.42019,51.3068,-3.59861,0,0,0
 16:28:00.616,-1.46345,50.8866,-3.63198,0,0,0
 16:28:00.626,-1.49178,50.4559,-3.6717,0,0,0
 16:28:00.636,-1.49623,49.9634,-3.69865,0,0,0
 16:28:00.646,-1.48295,49.3927,-3.71878,0,0,0
 16:28:00.656,-1.45403,48.7874,-3.72623,0,0,0
 16:28:00.666,-1.4444,48.125,-3.71241,0,0,0
 16:28:00.676,-1.45485,47.3651,-3.66743,0,0,0
 16:28:00.686,-1.49167,46.5658,-3.60442,0,0,0
 16:28:00.695,-1.54335,45.7562,-3.54284,0,0,0
 16:28:00.705,-1.60296,44.9921,-3.50046,0,0,0
 16:28:00.716,-1.65989,44.2482,-3.46616,0,0,0
 16:28:00.726,-1.7068,43.4902,-3.46011,0,0,0
 16:28:00.736,-1.74098,42.7641,-3.45888,0,0,0
 16:28:00.746,-1.79232,42.0156,-3.43687,0,0,0
 16:28:00.756,-1.87435,41.2301,-3.38623,0,0,0
 16:28:00.765,-1.96869,40.4273,-3.29895,0,0,0
 16:28:00.776,-2.07097,39.6752,-3.18862,0,0,0
 16:28:00.786,-2.1612,38.9303,-3.07733,0,0,0
 16:28:00.796,-2.23162,38.3442,-2.98274,0,0,0
 16:28:00.806,-2.2836,37.8099,-2.91655,0,0,0
 16:28:00.816,-2.34034,37.3376,-2.88638,0,0,0
 16:28:00.826,-2.42252,36.8756,-2.87017,0,0,0
 16:28:00.835,-2.53162,36.3705,-2.84689,0,0,0
 16:28:00.846,-2.65807,35.8151,-2.80908,0,0,0
 16:28:00.856,-2.77952,35.2034,-2.76679,0,0,0
 16:28:00.866,-2.877,34.5506,-2.72359,0,0,0
 16:28:00.876,-2.94752,33.888,-2.67374,0,0,0
 16:28:00.886,-2.98168,33.2414,-2.6243,0,0,0
 16:28:00.896,-2.99283,32.6325,-2.57951,0,0,0
 16:28:00.906,-2.99714,32.0634,-2.54859,0,0,0
 16:28:00.916,-3.01225,31.4988,-2.51395,0,0,0
 16:28:00.926,-3.05484,30.8871,-2.46753,0,0,0
 16:28:00.936,-3.11957,30.2029,-2.39912,0,0,0
 16:28:00.945,-3.18698,29.4466,-2.31627,0,0,0
 16:28:00.956,-3.24381,28.6259,-2.22993,0,0,0
 16:28:00.966,-3.28533,27.7505,-2.15389,0,0,0
 16:28:00.976,-3.32593,26.8578,-2.10048,0,0,0
 16:28:00.986,-3.38779,25.9392,-2.07616,0,0,0
 16:28:00.996,-3.45593,25.0014,-2.04815,0,0,0
 16:28:01.006,-3.54004,24.0536,-2.00619,0,0,0
 16:28:01.016,-3.62596,23.1114,-1.95875,0,0,0
 16:28:01.026,-3.70798,22.2312,-1.90556,0,0,0
 16:28:01.036,-3.78015,21.4091,-1.85266,0,0,0
 16:28:01.046,-3.85994,20.5914,-1.7975,0,0,0
 16:28:01.056,-3.95168,19.717,-1.7428,0,0,0
 16:28:01.066,-4.04865,18.8297,-1.68898,0,0,0
 16:28:01.076,-4.13878,17.951,-1.63439,0,0,0
 16:28:01.086,-4.21857,17.1174,-1.59613,0,0,0
 16:28:01.096,-4.30047,16.3537,-1.58769,0,0,0
 16:28:01.106,-4.35139,15.7056,-1.61141,0,0,0
 16:28:01.116,-4.40141,15.0892,-1.63699,0,0,0
 16:28:01.126,-4.43585,14.5107,-1.64484,0,0,0
 16:28:01.136,-4.45175,13.9646,-1.63545,0,0,0
 16:28:01.146,-4.4496,13.4455,-1.61879,0,0,0
 16:28:01.156,-4.43841,12.933,-1.59879,0,0,0
 16:28:01.166,-4.43885,12.3783,-1.58878,0,0,0
 16:28:01.176,-4.4442,11.7952,-1.60276,0,0,0
 16:28:01.186,-4.43767,11.1865,-1.64065,0,0,0
 16:28:01.198,-4.41459,10.5955,-1.6754,0,0,0
 16:28:01.206,-4.36564,10.0361,-1.68948,0,0,0
 16:28:01.216,-4.29889,9.47531,-1.68754,0,0,0
 16:28:01.226,-4.21566,8.88512,-1.679,0,0,0
 16:28:01.236,-4.1513,8.28623,-1.65277,0,0,0
 16:28:01.246,-4.10644,7.69382,-1.61416,0,0,0
 16:28:01.255,-4.07985,7.10984,-1.57973,0,0,0
 16:28:01.266,-4.08197,6.55163,-1.54081,0,0,0
 16:28:01.276,-4.11563,6.03921,-1.51098,0,0,0
 16:28:01.286,-4.16547,5.56559,-1.5135,0,0,0
 16:28:01.296,-4.22635,5.12737,-1.56708,0,0,0
 16:28:01.306,-4.28329,4.74321,-1.66381,0,0,0
 16:28:01.316,-4.34619,4.39732,-1.79122,0,0,0
 16:28:01.326,-4.42079,4.12813,-1.93845,0,0,0
 16:28:01.336,-4.50405,3.99408,-2.06857,0,0,0
 16:28:01.346,-4.5933,3.89217,-2.17699,0,0,0
 16:28:01.355,-4.67445,3.79146,-2.28539,0,0,0
 16:28:01.365,-4.73412,3.73357,-2.2968,0,0,0
 16:28:01.375,-4.77945,3.68759,-2.31568,0,0,0
 16:28:01.386,-4.81988,3.66415,-2.34862,0,0,0
 16:28:01.396,-4.87388,3.69088,-2.38008,0,0,0
 16:28:01.406,-4.93266,3.72347,-2.40853,0,0,0
 16:28:01.416,-4.98402,3.7486,-2.43899,0,0,0
 16:28:01.426,-5.01408,3.75536,-2.4612,0,0,0
 16:28:01.436,-5.02196,3.74386,-2.46359,0,0,0
 16:28:01.446,-5.02007,3.75398,-2.44681,0,0,0
 16:28:01.456,-5.00931,3.77877,-2.43321,0,0,0
 16:28:01.466,-4.99751,3.78692,-2.43515,0,0,0
 16:28:01.476,-4.99341,3.79384,-2.44026,0,0,0
 16:28:01.486,-5.00516,3.8411,-2.44211,0,0,0
 16:28:01.496,-5.0075,3.95658,-2.46115,0,0,0
 16:28:01.506,-4.99633,4.11916,-2.49417,0,0,0
 16:28:01.516,-4.9887,4.3136,-2.51942,0,0,0
 16:28:01.526,-4.98507,4.5078,-2.54252,0,0,0
 16:28:01.536,-4.99299,4.69842,-2.57481,0,0,0
 16:28:01.545,-4.9994,4.85616,-2.61044,0,0,0
 16:28:01.556,-4.99603,4.97991,-2.64775,0,0,0
 16:28:01.566,-4.98572,5.09427,-2.68957,0,0,0
 16:28:01.576,-4.95934,5.22531,-2.74632,0,0,0
 16:28:01.586,-4.91972,5.37728,-2.81752,0,0,0
 16:28:01.596,-4.89358,5.51492,-2.89665,0,0,0
 16:28:01.606,-4.87652,5.6468,-2.98191,0,0,0
 16:28:01.616,-4.85189,5.78948,-3.05418,0,0,0
 16:28:01.626,-4.82775,5.93196,-3.12117,0,0,0
 16:28:01.636,-4.79901,6.07299,-3.18795,0,0,0
 16:28:01.646,-4.74124,6.22479,-3.22929,0,0,0
 16:28:01.656,-4.71599,6.44211,-3.25322,0,0,0
 16:28:01.666,-4.7507,6.69298,-3.25744,0,0,0
 16:28:01.676,-4.86208,6.919,-3.26444,0,0,0
 16:28:01.686,-5.03145,7.13462,-3.29848,0,0,0
 16:28:01.696,-5.20606,7.36002,-3.36422,0,0,0
 16:28:01.706,-5.3405,7.56341,-3.43656,0,0,0
 16:28:01.716,-5.42559,7.73381,-3.47583,0,0,0
 16:28:01.726,-5.48233,7.86507,-3.48395,0,0,0
 16:28:01.736,-5.51662,7.94292,-3.49144,0,0,0
 16:28:01.746,-5.54126,7.97688,-3.52034,0,0,0
 16:28:01.756,-5.57208,7.99692,-3.57084,0,0,0
 16:28:01.766,-5.64596,8.04614,-3.6269,0,0,0
 16:28:01.776,-5.76349,8.10927,-3.69433,0,0,0
 16:28:01.786,-5.89063,8.19591,-3.78603,0,0,0
 16:28:01.796,-6.0018,8.27536,-3.89511,0,0,0
 16:28:01.806,-6.09302,8.35922,-4.00268,0,0,0
 16:28:01.816,-6.15173,8.46022,-4.10282,0,0,0
 16:28:01.826,-6.15956,8.56031,-4.1953,0,0,0
 16:28:01.836,-6.10545,8.6449,-4.26994,0,0,0
 16:28:01.845,-6.01649,8.72071,-4.32723,0,0,0
 16:28:01.856,-5.90763,8.77661,-4.38527,0,0,0
 16:28:01.866,-5.79346,8.8066,-4.45825,0,0,0
 16:28:01.876,-5.68768,8.85063,-4.53558,0,0,0
 16:28:01.886,-5.60742,8.89551,-4.60993,0,0,0
 16:28:01.896,-5.5469,8.96187,-4.68222,0,0,0
 16:28:01.906,-5.49084,9.03134,-4.75285,0,0,0
 16:28:01.916,-5.42854,9.10005,-4.82334,0,0,0
 16:28:01.926,-5.33278,9.2174,-4.81133,0,0,0
 16:28:01.936,-5.19615,9.26871,-4.77659,0,0,0
 16:28:01.946,-5.0441,9.2636,-4.74959,0,0,0
 16:28:01.956,-4.90669,9.23948,-4.72855,0,0,0
 16:28:01.966,-4.80733,9.23595,-4.69815,0,0,0
 16:28:01.976,-4.76101,9.28072,-4.64753,0,0,0
 16:28:01.986,-4.76043,9.36916,-4.58499,0,0,0
 16:28:01.996,-4.78291,9.4495,-4.52353,0,0,0
 16:28:02.006,-4.79166,9.502,-4.47719,0,0,0
 16:28:02.016,-4.75857,9.52599,-4.43853,0,0,0
 16:28:02.026,-4.70197,9.48313,-4.40126,0,0,0
 16:28:02.035,-4.62581,9.38755,-4.3649,0,0,0
 16:28:02.046,-4.52985,9.29435,-4.35416,0,0,0
 16:28:02.056,-4.43615,9.22502,-4.38369,0,0,0
 16:28:02.066,-4.35735,9.14154,-4.45152,0,0,0
 16:28:02.076,-4.2703,9.0665,-4.53361,0,0,0
 16:28:02.086,-4.18361,9.08834,-4.58953,0,0,0
 16:28:02.096,-4.12636,9.12632,-4.57909,0,0,0
 16:28:02.106,-4.11305,9.08325,-4.51312,0,0,0
 16:28:02.116,-4.08795,8.98279,-4.42463,0,0,0
 16:28:02.125,-4.02216,8.86341,-4.34132,0,0,0
 16:28:02.136,-3.93591,8.70133,-4.27922,0,0,0
 16:28:02.146,-3.83379,8.5385,-4.22933,0,0,0
 16:28:02.156,-3.76121,8.50426,-4.18727,0,0,0
 16:28:02.166,-3.72591,8.58265,-4.15953,0,0,0
 16:28:02.175,-3.71437,8.67467,-4.14489,0,0,0
 16:28:02.186,-3.70709,8.7981,-4.13884,0,0,0
 16:28:02.196,-3.69991,8.9203,-4.13268,0,0,0
 16:28:02.206,-3.623,9.27391,-4.15482,0,0,0
 16:28:02.216,-3.52266,9.81307,-4.17688,0,0,0
 16:28:02.226,-3.40294,10.587,-4.15754,0,0,0
 16:28:02.236,-3.26669,11.4331,-4.10825,0,0,0
 16:28:02.246,-3.13033,12.2978,-4.09223,0,0,0
 16:28:02.256,-2.99909,13.2166,-4.1558,0,0,0
 16:28:02.266,-2.85331,14.289,-4.33955,0,0,0
 16:28:02.276,-2.6405,15.6607,-4.64816,0,0,0
 16:28:02.286,-2.31059,17.4378,-5.0589,0,0,0
 16:28:02.296,-1.85258,19.6063,-5.5288,0,0,0
 16:28:02.306,-1.30065,22.0424,-6.00284,0,0,0
 16:28:02.315,-0.6934,24.6448,-6.43933,0,0,0
 16:28:02.326,-0.062338,27.2984,-6.80117,0,0,0
 16:28:02.336,0.546478,29.7858,-7.10024,0,0,0
 16:28:02.346,1.10755,32.045,-7.3454,0,0,0
 16:28:02.356,1.61466,34.086,-7.54135,0,0,0
 16:28:02.366,2.05602,35.8936,-7.68459,0,0,0
 16:28:02.375,2.41539,37.5095,-7.78168,0,0,0
 16:28:02.385,2.68041,38.9661,-7.84289,0,0,0
 16:28:02.396,2.85067,40.2666,-7.85741,0,0,0
 16:28:02.406,2.92145,41.3345,-7.82672,0,0,0
 16:28:02.416,2.92756,42.1821,-7.78968,0,0,0
 16:28:02.426,2.91676,42.8681,-7.77403,0,0,0
 16:28:02.436,2.91533,43.4364,-7.78891,0,0,0
 16:28:02.446,2.92158,43.9853,-7.81832,0,0,0
 16:28:02.456,2.9355,44.5167,-7.82965,0,0,0
 16:28:02.466,2.94354,45.0392,-7.81813,0,0,0
 16:28:02.476,2.94688,45.5564,-7.80674,0,0,0
 16:28:02.486,2.84547,45.9683,-7.72659,0,0,0
 16:28:02.496,2.7357,46.3697,-7.65899,0,0,0
 16:28:02.506,2.65369,46.8198,-7.60798,0,0,0
 16:28:02.516,2.60053,47.3489,-7.55587,0,0,0
 16:28:02.526,2.56783,47.9578,-7.48531,0,0,0
 16:28:02.536,2.57018,48.6032,-7.3946,0,0,0
 16:28:02.546,2.60786,49.2992,-7.28794,0,0,0
 16:28:02.556,2.6756,50.0696,-7.16551,0,0,0
 16:28:02.566,2.74839,50.8263,-7.02463,0,0,0
 16:28:02.575,2.82227,51.5137,-6.86514,0,0,0
 16:28:02.586,2.93335,52.1546,-6.69317,0,0,0
 16:28:02.596,3.06028,52.8612,-6.55395,0,0,0
 16:28:02.606,3.20209,53.6624,-6.44941,0,0,0
 16:28:02.616,3.38352,54.5278,-6.36956,0,0,0
 16:28:02.626,3.57319,55.3724,-6.36701,0,0,0
 16:28:02.636,3.7677,56.2971,-6.43157,0,0,0
 16:28:02.646,3.96226,57.3657,-6.5679,0,0,0
 16:28:02.656,4.14242,58.6147,-6.7657,0,0,0
 16:28:02.666,4.36364,59.968,-6.99635,0,0,0
 16:28:02.676,4.60917,61.2016,-7.17565,0,0,0
 16:28:02.686,4.77739,62.3709,-7.26587,0,0,0
 16:28:02.695,4.84089,63.5062,-7.23867,0,0,0
 16:28:02.705,4.81444,64.5451,-7.11642,0,0,0
 16:28:02.716,4.746,65.4921,-6.94903,0,0,0
 16:28:02.726,4.66535,66.3437,-6.78634,0,0,0
 16:28:02.736,4.60737,67.1,-6.64785,0,0,0
 16:28:02.746,4.57174,67.8137,-6.53763,0,0,0
 16:28:02.756,4.53632,68.5202,-6.42835,0,0,0
 16:28:02.766,4.63,69.187,-6.37917,0,0,0
 16:28:02.776,4.73158,69.8905,-6.29892,0,0,0
 16:28:02.786,4.78957,70.6368,-6.13913,0,0,0
 16:28:02.796,4.75501,71.4166,-5.89523,0,0,0
 16:28:02.806,4.62734,72.1749,-5.61013,0,0,0
 16:28:02.816,4.41005,72.8311,-5.34519,0,0,0
 16:28:02.826,4.17431,73.4259,-5.14669,0,0,0
 16:28:02.836,3.96385,74.014,-5.03137,0,0,0
 16:28:02.846,3.76133,74.6416,-4.96281,0,0,0
 16:28:02.856,3.57794,75.2455,-4.88313,0,0,0
 16:28:02.866,3.42443,75.823,-4.78243,0,0,0
 16:28:02.876,3.31314,76.4285,-4.67055,0,0,0
 16:28:02.886,3.21682,76.9093,-4.54089,0,0,0
 16:28:02.896,3.14645,77.3191,-4.38642,0,0,0
 16:28:02.906,3.06946,77.7599,-4.22629,0,0,0
 16:28:02.916,2.98978,78.2262,-4.07832,0,0,0
 16:28:02.926,2.8598,78.7267,-3.93366,0,0,0
 16:28:02.936,2.68498,79.237,-3.78247,0,0,0
 16:28:02.946,2.45711,79.7596,-3.61751,0,0,0
 16:28:02.956,2.20303,80.3063,-3.44885,0,0,0
 16:28:02.966,1.97315,80.8701,-3.28574,0,0,0
 16:28:02.976,1.82289,81.4733,-3.13864,0,0,0
 16:28:02.986,1.71997,82.1933,-2.97474,0,0,0
 16:28:02.996,1.62306,83.027,-2.76551,0,0,0
 16:28:03.006,1.48632,83.9007,-2.50091,0,0,0
 16:28:03.016,1.29618,84.7619,-2.19019,0,0,0
 16:28:03.026,1.08099,85.5568,-1.88436,0,0,0
 16:28:03.036,0.855128,86.3424,-1.58148,0,0,0
 16:28:03.046,0.735499,87.0651,-1.44629,0,0,0
 16:28:03.056,0.665405,87.7799,-1.32805,0,0,0
 16:28:03.066,0.632281,88.4999,-1.19956,0,0,0
 16:28:03.076,0.632914,89.2047,-1.04267,0,0,0
 16:28:03.086,0.687716,89.8631,-0.873843,0,0,0
 16:28:03.095,0.748699,90.4707,-0.725427,0,0,0
 16:28:03.106,0.786581,91.016,-0.609319,0,0,0
 16:28:03.116,0.778419,91.4846,-0.545069,0,0,0
 16:28:03.126,0.740027,91.9394,-0.503406,0,0,0
 16:28:03.136,0.695928,92.4034,-0.464834,0,0,0
 16:28:03.146,0.676672,92.8591,-0.406883,0,0,0
 16:28:03.156,0.643306,93.3084,-0.33099,0,0,0
 16:28:03.166,0.61437,93.7553,-0.245993,0,0,0
 16:28:03.176,0.620277,94.1684,-0.173869,0,0,0
 16:28:03.186,0.628984,94.5743,-0.129036,0,0,0
 16:28:03.196,0.636922,94.9901,-0.0891591,0,0,0
 16:28:03.206,0.631,95.385,-0.0413099,0,0,0
 16:28:03.216,0.617482,95.774,0.00953178,0,0,0
 16:28:03.226,0.590948,96.15,0.0532079,0,0,0
 16:28:03.236,0.524272,96.5095,0.0861057,0,0,0
 16:28:03.246,0.437234,96.7758,0.131631,0,0,0
 16:28:03.255,0.358611,97.056,0.146032,0,0,0
 16:28:03.268,0.267617,97.3834,0.153275,0,0,0
 16:28:03.276,0.197414,97.715,0.19229,0,0,0
 16:28:03.286,0.160575,98.0135,0.258273,0,0,0
 16:28:03.296,0.142681,98.2841,0.335102,0,0,0
 16:28:03.306,0.154991,98.5041,0.394995,0,0,0
 16:28:03.316,0.168122,98.7218,0.454951,0,0,0
 16:28:03.325,0.133722,98.9157,0.453144,0,0,0
 16:28:03.336,0.0833117,99.113,0.461265,0,0,0
 16:28:03.346,0.0527482,99.3059,0.491618,0,0,0
 16:28:03.356,0.0302358,99.5064,0.525546,0,0,0
 16:28:03.366,0.0100742,99.7251,0.559506,0,0,0
 16:28:03.376,-0.0121085,99.9183,0.606148,0,0,0
 16:28:03.386,-0.0477631,100.114,0.648159,0,0,0
 16:28:03.396,-0.126143,100.345,0.694134,0,0,0
 16:28:03.406,-0.212085,100.584,0.765303,0,0,0
 16:28:03.416,-0.272936,100.737,0.845382,0,0,0
 16:28:03.426,-0.330016,100.814,0.885536,0,0,0
 16:28:03.436,-0.386663,100.867,0.86568,0,0,0
 16:28:03.446,-0.444658,100.929,0.827632,0,0,0
 16:28:03.456,-0.504418,101.013,0.813839,0,0,0
 16:28:03.466,-0.541246,101.081,0.829215,0,0,0
 16:28:03.476,-0.526487,101.103,0.84754,0,0,0
 16:28:03.486,-0.47944,101.115,0.852599,0,0,0
 16:28:03.496,-0.440503,101.105,0.848218,0,0,0
 16:28:03.506,-0.420126,101.081,0.832912,0,0,0
 16:28:03.517,-0.424514,101.076,0.821407,0,0,0
 16:28:03.526,-0.432316,101.049,0.823999,0,0,0
 16:28:03.536,-0.420007,100.977,0.831431,0,0,0
 16:28:03.546,-0.42328,100.893,0.835051,0,0,0
 16:28:03.556,-0.454695,100.795,0.833107,0,0,0
 16:28:03.566,-0.500649,100.688,0.841047,0,0,0
 16:28:03.575,-0.528291,100.535,0.8505,0,0,0
 16:28:03.586,-0.523127,100.371,0.850363,0,0,0
 16:28:03.596,-0.511987,100.208,0.85074,0,0,0
 16:28:03.606,-0.506379,100.047,0.851074,0,0,0
 16:28:03.616,-0.470626,99.7333,0.787879,0,0,0
 16:28:03.626,-0.418563,99.3701,0.673286,0,0,0
 16:28:03.636,-0.34349,98.9397,0.526246,0,0,0
 16:28:03.646,-0.25922,98.4287,0.365185,0,0,0
 16:28:03.656,-0.197896,97.8974,0.199028,0,0,0
 16:28:03.666,-0.166199,97.3659,0.0656794,0,0,0
 16:28:03.676,-0.115545,96.8111,-0.00879756,0,0,0
 16:28:03.686,-0.0565125,96.1894,-0.0322085,0,0,0
 16:28:03.696,0.0281923,95.4751,-0.0565491,0,0,0
 16:28:03.706,0.150159,94.6746,-0.126519,0,0,0
 16:28:03.715,0.302946,93.8371,-0.271929,0,0,0
 16:28:03.725,0.439282,93.045,-0.445388,0,0,0
 16:28:03.736,0.515255,92.3212,-0.599538,0,0,0
 16:28:03.746,0.522466,91.6026,-0.712981,0,0,0
 16:28:03.756,0.484628,90.8491,-0.810672,0,0,0
 16:28:03.766,0.465682,90.0183,-0.911108,0,0,0
 16:28:03.776,0.490703,89.0445,-1.03149,0,0,0
 16:28:03.786,0.576533,87.9936,-1.17211,0,0,0
 16:28:03.796,0.706888,86.8313,-1.32259,0,0,0
 16:28:03.806,0.913551,85.5624,-1.49453,0,0,0
 16:28:03.816,1.15882,84.101,-1.70497,0,0,0
 16:28:03.826,1.42345,82.6297,-1.98425,0,0,0
 16:28:03.836,1.57342,81.1234,-2.38446,0,0,0
 16:28:03.846,1.60756,79.5649,-2.83771,0,0,0
 16:28:03.856,1.5395,78.2473,-3.34148,0,0,0
 16:28:03.866,1.33202,77.2842,-3.86835,0,0,0
 16:28:03.876,1.04734,76.3918,-4.39008,0,0,0
 16:28:03.886,0.760822,75.5109,-4.9072,0,0,0
 16:28:03.896,0.261489,74.4999,-5.36744,0,0,0
 16:28:03.906,-0.157115,73.5734,-5.81956,0,0,0
 16:28:03.916,-0.48049,72.6785,-6.23815,0,0,0
 16:28:03.926,-0.727959,71.7039,-6.55736,0,0,0
 16:28:03.936,-0.943623,70.6085,-6.76217,0,0,0
 16:28:03.946,-1.1191,69.4102,-6.92194,0,0,0
 16:28:03.956,-1.27784,68.1858,-7.11467,0,0,0
 16:28:03.966,-1.48517,66.8536,-7.36364,0,0,0
 16:28:03.976,-1.74452,65.4994,-7.63802,0,0,0
 16:28:03.987,-2.10244,64.1747,-7.89135,0,0,0
 16:28:03.996,-2.49659,62.8164,-8.1052,0,0,0
 16:28:04.006,-2.83894,61.3495,-8.28514,0,0,0
 16:28:04.016,-3.11277,59.8661,-8.46152,0,0,0
 16:28:04.025,-3.39349,58.5338,-8.62362,0,0,0
 16:28:04.036,-3.67924,57.3607,-8.74716,0,0,0
 16:28:04.045,-3.92933,56.2558,-8.83459,0,0,0
 16:28:04.056,-4.13358,55.1433,-8.8892,0,0,0
 16:28:04.066,-4.27309,53.9804,-8.9189,0,0,0
 16:28:04.076,-4.3248,52.7312,-8.93821,0,0,0
 16:28:04.086,-4.30656,51.5063,-8.98364,0,0,0
 16:28:04.096,-4.30556,50.3981,-9.01839,0,0,0
 16:28:04.106,-4.36871,49.3735,-8.96371,0,0,0
 16:28:04.116,-4.5411,48.3535,-8.77597,0,0,0
 16:28:04.126,-4.77112,47.3684,-8.46935,0,0,0
 16:28:04.136,-4.97829,46.4824,-8.08513,0,0,0
 16:28:04.146,-5.09811,45.5296,-7.59015,0,0,0
 16:28:04.156,-5.2222,44.5849,-7.09408,0,0,0
 16:28:04.165,-5.2216,43.5829,-6.57588,0,0,0
 16:28:04.176,-5.20966,42.5909,-6.0588,0,0,0
 16:28:04.186,-5.19785,41.6812,-5.54311,0,0,0
 16:28:04.196,-5.22702,40.8722,-5.05035,0,0,0
 16:28:04.206,-5.28991,40.1868,-4.63097,0,0,0
 16:28:04.216,-5.32876,39.5497,-4.36254,0,0,0
 16:28:04.226,-5.32426,38.8504,-4.21727,0,0,0
 16:28:04.236,-5.26703,38.096,-4.19188,0,0,0
 16:28:04.246,-5.16817,37.2033,-4.22916,0,0,0
 16:28:04.256,-5.06595,36.2442,-4.29379,0,0,0
 16:28:04.266,-5.00233,35.2524,-4.31192,0,0,0
 16:28:04.276,-4.96183,34.266,-4.26899,0,0,0
 16:28:04.286,-4.93351,33.2691,-4.16401,0,0,0
 16:28:04.296,-4.90469,32.2035,-3.99064,0,0,0
 16:28:04.306,-4.85975,31.0232,-3.77885,0,0,0
 16:28:04.316,-4.82741,29.7467,-3.57543,0,0,0
 16:28:04.326,-4.82195,28.3713,-3.4049,0,0,0
 16:28:04.336,-4.82924,26.9713,-3.24686,0,0,0
 16:28:04.346,-4.82947,25.5816,-3.10231,0,0,0
 16:28:04.355,-4.83138,24.1823,-2.94253,0,0,0
 16:28:04.366,-4.83065,22.7409,-2.76424,0,0,0
 16:28:04.375,-4.82175,21.2528,-2.58211,0,0,0
 16:28:04.386,-4.82994,19.828,-2.40009,0,0,0
 16:28:04.395,-4.85722,18.5401,-2.2292,0,0,0
 16:28:04.406,-4.92024,17.4266,-2.08546,0,0,0
 16:28:04.416,-5.02111,16.5459,-1.99158,0,0,0
 16:28:04.426,-5.16403,15.8327,-1.96376,0,0,0
 16:28:04.436,-5.30271,15.1512,-2.01164,0,0,0
 16:28:04.446,-5.43684,14.4772,-2.06786,0,0,0
 16:28:04.456,-5.57283,13.8099,-2.12297,0,0,0
 16:28:04.466,-5.43383,13.3382,-2.25312,0,0,0
 16:28:04.476,-5.21821,13.0037,-2.34202,0,0,0
 16:28:04.486,-5.03865,12.7627,-2.37979,0,0,0
 16:28:04.496,-4.92119,12.5616,-2.41811,0,0,0
 16:28:04.506,-4.8436,12.3751,-2.51291,0,0,0
 16:28:04.516,-4.80091,12.1718,-2.64242,0,0,0
 16:28:04.526,-4.77509,11.9311,-2.77899,0,0,0
 16:28:04.536,-4.7351,11.7221,-2.90556,0,0,0
 16:28:04.549,-4.67521,11.5936,-3.02654,0,0,0
 16:28:04.556,-4.61418,11.5023,-3.13733,0,0,0
 16:28:04.566,-4.56056,11.4292,-3.24404,0,0,0
 16:28:04.576,-4.49792,11.3607,-3.34858,0,0,0
 16:28:04.586,-4.41638,11.2922,-3.43976,0,0,0
 16:28:04.596,-4.34816,11.2263,-3.51069,0,0,0
 16:28:04.606,-4.30281,11.1435,-3.58478,0,0,0
 16:28:04.616,-4.27565,11.0327,-3.6847,0,0,0
 16:28:04.626,-4.26405,10.9039,-3.80193,0,0,0
 16:28:04.636,-4.27456,10.7605,-3.92149,0,0,0
 16:28:04.646,-4.27436,10.5791,-4.04977,0,0,0
 16:28:04.656,-4.26426,10.4169,-4.18649,0,0,0
 16:28:04.666,-4.2798,10.3341,-4.30898,0,0,0
 16:28:04.676,-4.3001,10.3002,-4.40607,0,0,0
 16:28:04.686,-4.28428,10.3089,-4.48082,0,0,0
 16:28:04.696,-4.24749,10.3076,-4.529,0,0,0
 16:28:04.706,-4.20901,10.2855,-4.56639,0,0,0
 16:28:04.716,-4.16962,10.2389,-4.60363,0,0,0
 16:28:04.726,-4.12992,10.1882,-4.64046,0,0,0
 16:28:04.736,-4.08493,10.138,-4.67738,0,0,0
 16:28:04.746,-4.03958,9.99972,-4.69308,0,0,0
 16:28:04.756,-4.01922,9.89044,-4.70682,0,0,0
 16:28:04.766,-4.03481,9.79599,-4.72577,0,0,0
 16:28:04.776,-4.06277,9.70548,-4.76876,0,0,0
 16:28:04.786,-4.07015,9.62663,-4.83728,0,0,0
 16:28:04.796,-4.04592,9.54739,-4.91213,0,0,0
 16:28:04.805,-4.01669,9.45073,-4.98063,0,0,0
 16:28:04.816,-3.99897,9.33444,-5.05714,0,0,0
 16:28:04.825,-4.01094,9.24074,-5.13704,0,0,0
 16:28:04.836,-4.08416,9.19586,-5.17218,0,0,0
 16:28:04.846,-4.2273,9.16455,-5.1382,0,0,0
 16:28:04.855,-4.42693,9.10917,-5.03469,0,0,0
 16:28:04.866,-4.65265,9.07422,-4.90159,0,0,0
 16:28:04.876,-4.87203,9.09464,-4.7753,0,0,0
 16:28:04.886,-5.08655,9.17872,-4.68632,0,0,0
 16:28:04.896,-5.29104,9.32896,-4.65157,0,0,0
 16:28:04.906,-5.49048,9.53967,-4.6671,0,0,0
 16:28:04.916,-5.66654,9.73233,-4.71689,0,0,0
 16:28:04.926,-5.83854,9.81259,-4.7671,0,0,0
 16:28:04.936,-6.00247,9.84963,-4.84299,0,0,0
 16:28:04.946,-6.19028,9.85576,-4.92002,0,0,0
 16:28:04.956,-6.44687,9.82954,-4.97308,0,0,0
 16:28:04.966,-6.75999,9.75168,-4.98311,0,0,0
 16:28:04.976,-7.11472,9.63487,-4.96258,0,0,0
 16:28:04.986,-7.50892,9.52599,-4.91761,0,0,0
 16:28:04.996,-7.9179,9.44157,-4.85878,0,0,0
 16:28:05.006,-8.32353,9.36157,-4.79124,0,0,0
 16:28:05.016,-8.72501,9.28181,-4.72325,0,0,0
 16:28:05.026,-9.04894,9.22076,-4.68225,0,0,0
 16:28:05.036,-9.33914,9.18568,-4.65355,0,0,0
 16:28:05.046,-9.63373,9.20223,-4.65559,0,0,0
 16:28:05.056,-9.96626,9.24577,-4.70629,0,0,0
 16:28:05.066,-10.3489,9.27048,-4.79561,0,0,0
 16:28:05.076,-10.8093,9.28852,-4.89285,0,0,0
 16:28:05.086,-11.3253,9.2918,-4.98883,0,0,0
 16:28:05.096,-11.8872,9.30739,-5.09627,0,0,0
 16:28:05.106,-12.4576,9.34928,-5.23066,0,0,0
 16:28:05.116,-13.0357,9.46906,-5.39759,0,0,0
 16:28:05.126,-13.5799,9.682,-5.60008,0,0,0
 16:28:05.136,-14.1152,9.94369,-5.82201,0,0,0
 16:28:05.146,-14.654,10.1911,-6.02522,0,0,0
 16:28:05.156,-15.2111,10.4719,-6.20287,0,0,0
 16:28:05.166,-15.8027,10.7684,-6.33282,0,0,0
 16:28:05.176,-16.3995,11.0728,-6.4241,0,0,0
 16:28:05.186,-16.9908,11.3004,-6.48787,0,0,0
 16:28:05.196,-17.6165,11.4283,-6.52104,0,0,0
 16:28:05.206,-18.3129,11.4755,-6.52332,0,0,0
 16:28:05.216,-19.0373,11.4144,-6.50135,0,0,0
 16:28:05.226,-19.7232,11.2969,-6.5104,0,0,0
 16:28:05.236,-20.3663,11.1841,-6.55986,0,0,0
 16:28:05.246,-20.9424,11.0906,-6.63094,0,0,0
 16:28:05.256,-21.4391,11.067,-6.71385,0,0,0
 16:28:05.266,-21.9129,11.1191,-6.80089,0,0,0
 16:28:05.276,-22.3874,11.2421,-6.89417,0,0,0
 16:28:05.286,-22.8618,11.4084,-6.98181,0,0,0
 16:28:05.296,-23.3366,11.5713,-7.06342,0,0,0
 16:28:05.306,-23.8103,11.7338,-7.1462,0,0,0
 16:28:05.316,-24.3553,11.827,-7.10529,0,0,0
 16:28:05.326,-24.8877,11.8734,-7.01254,0,0,0
 16:28:05.336,-25.3974,11.8366,-6.88211,0,0,0
 16:28:05.346,-25.8655,11.7308,-6.75998,0,0,0
 16:28:05.356,-26.2692,11.5995,-6.67299,0,0,0
 16:28:05.366,-26.6255,11.4944,-6.62093,0,0,0
 16:28:05.376,-26.9889,11.4679,-6.56047,0,0,0
 16:28:05.386,-27.3723,11.5156,-6.46913,0,0,0
 16:28:05.395,-27.7576,11.6017,-6.36258,0,0,0
 16:28:05.406,-28.1073,11.7014,-6.28365,0,0,0
 16:28:05.416,-28.4265,11.8098,-6.2407,0,0,0
 16:28:05.426,-28.7182,11.8905,-6.21725,0,0,0
 16:28:05.436,-28.9809,11.9194,-6.20905,0,0,0
 16:28:05.446,-29.2168,11.9168,-6.23802,0,0,0
 16:28:05.456,-29.4048,11.916,-6.32979,0,0,0
 16:28:05.466,-29.5493,11.9783,-6.50015,0,0,0
 16:28:05.476,-29.6716,12.1368,-6.72264,0,0,0
 16:28:05.486,-29.7833,12.3287,-6.9504,0,0,0
 16:28:05.496,-29.8937,12.511,-7.14154,0,0,0
 16:28:05.506,-29.9741,12.6512,-7.25818,0,0,0
 16:28:05.516,-30.0193,12.7154,-7.29238,0,0,0
 16:28:05.526,-30.0196,12.709,-7.26256,0,0,0
 16:28:05.536,-29.9988,12.6784,-7.1955,0,0,0
 16:28:05.546,-29.9748,12.6444,-7.11909,0,0,0
 16:28:05.556,-29.9433,12.6055,-7.03534,0,0,0
 16:28:05.566,-29.9357,12.5504,-6.9587,0,0,0
 16:28:05.575,-29.9476,12.4671,-6.89483,0,0,0
 16:28:05.586,-29.9592,12.3847,-6.83133,0,0,0
 16:28:05.596,-29.9727,12.303,-6.76822,0,0,0
 16:28:05.607,-29.9137,12.16,-6.6872,0,0,0
 16:28:05.616,-29.8485,12.0512,-6.64861,0,0,0
 16:28:05.626,-29.7806,11.991,-6.65352,0,0,0
 16:28:05.636,-29.6946,11.9798,-6.69149,0,0,0
 16:28:05.646,-29.5724,11.9988,-6.73156,0,0,0
 16:28:05.656,-29.4073,12.0186,-6.76334,0,0,0
 16:28:05.666,-29.1943,12.0327,-6.78992,0,0,0
 16:28:05.675,-28.9312,12.0422,-6.82733,0,0,0
 16:28:05.686,-28.6394,12.0546,-6.87364,0,0,0
 16:28:05.695,-28.3537,12.0839,-6.87859,0,0,0
 16:28:05.705,-28.1129,12.1208,-6.85489,0,0,0
 16:28:05.716,-27.9109,12.1669,-6.85646,0,0,0
 16:28:05.726,-27.7029,12.2837,-6.9296,0,0,0
 16:28:05.736,-27.4446,12.4771,-7.07682,0,0,0
 16:28:05.746,-27.1295,12.6965,-7.24373,0,0,0
 16:28:05.756,-26.7612,12.9305,-7.40085,0,0,0
 16:28:05.766,-26.3614,13.1661,-7.55374,0,0,0
 16:28:05.776,-25.9527,13.4007,-7.69256,0,0,0
 16:28:05.786,-25.5743,13.6101,-7.78866,0,0,0
 16:28:05.796,-25.2374,13.8022,-7.83002,0,0,0
 16:28:05.806,-24.9286,13.9338,-7.82188,0,0,0
 16:28:05.817,-24.6576,13.9947,-7.78687,0,0,0
 16:28:05.826,-24.4125,14.0187,-7.7564,0,0,0
 16:28:05.836,-24.1969,14.005,-7.73169,0,0,0
 16:28:05.846,-23.9989,13.9564,-7.70782,0,0,0
 16:28:05.856,-23.8001,13.8727,-7.6834,0,0,0
 16:28:05.867,-23.5989,13.7755,-7.66353,0,0,0
 16:28:05.876,-23.3963,13.6795,-7.64446,0,0,0
 16:28:05.886,-23.0975,13.5177,-7.51628,0,0,0
 16:28:05.896,-22.7703,13.371,-7.36746,0,0,0
 16:28:05.906,-22.4157,13.2552,-7.24751,0,0,0
 16:28:05.916,-22.0306,13.17,-7.18389,0,0,0
 16:28:05.926,-21.6338,13.0881,-7.14692,0,0,0
 16:28:05.936,-21.2693,12.9864,-7.10131,0,0,0
 16:28:05.946,-20.9649,12.8448,-7.04908,0,0,0
 16:28:05.956,-20.6996,12.7081,-7.01077,0,0,0
 16:28:05.966,-20.4394,12.5827,-6.9824,0,0,0
 16:28:05.976,-20.1419,12.4281,-6.93488,0,0,0
 16:28:05.986,-19.8133,12.2069,-6.83178,0,0,0
 16:28:05.997,-19.4876,11.9623,-6.67971,0,0,0
 16:28:06.006,-19.1871,11.7309,-6.50396,0,0,0
 16:28:06.016,-18.9155,11.5393,-6.33195,0,0,0
 16:28:06.026,-18.6871,11.3623,-6.18039,0,0,0
 16:28:06.036,-18.4824,11.2249,-6.06346,0,0,0
 16:28:06.045,-18.2881,11.1346,-5.99168,0,0,0
 16:28:06.056,-18.0817,11.0635,-5.96942,0,0,0
 16:28:06.066,-17.8461,11.0075,-5.96523,0,0,0
 16:28:06.076,-17.6124,10.9674,-5.93727,0,0,0
 16:28:06.086,-17.412,10.9199,-5.87648,0,0,0
 16:28:06.096,-17.2451,10.8576,-5.80591,0,0,0
 16:28:06.106,-17.0795,10.7896,-5.74368,0,0,0
 16:28:06.116,-16.8963,10.7111,-5.69373,0,0,0
 16:28:06.126,-16.6905,10.6454,-5.6552,0,0,0
 16:28:06.136,-16.4685,10.5771,-5.62973,0,0,0
 16:28:06.146,-16.229,10.4802,-5.61034,0,0,0
 16:28:06.156,-15.9853,10.3882,-5.58926,0,0,0
 16:28:06.166,-15.7363,10.2975,-5.56883,0,0,0
 16:28:06.176,-15.5089,10.1875,-5.48322,0,0,0
 16:28:06.186,-15.2632,10.0803,-5.40432,0,0,0
 16:28:06.196,-14.9768,9.97322,-5.35351,0,0,0
 16:28:06.206,-14.6509,9.91295,-5.3246,0,0,0
 16:28:06.216,-14.294,9.91843,-5.28216,0,0,0
 16:28:06.226,-13.9313,9.92812,-5.20826,0,0,0
 16:28:06.236,-13.5902,9.95132,-5.10805,0,0,0
 16:28:06.246,-13.2749,10.0096,-4.99995,0,0,0
 16:28:06.256,-12.9702,10.0618,-4.89038,0,0,0
 16:28:06.267,-12.6536,10.041,-4.78162,0,0,0
 16:28:06.276,-12.3314,9.95926,-4.67851,0,0,0
 16:28:06.286,-12.0127,9.8637,-4.58499,0,0,0
 16:28:06.296,-11.7164,9.76936,-4.51525,0,0,0
 16:28:06.306,-11.4534,9.67665,-4.4668,0,0,0
 16:28:06.316,-11.236,9.60426,-4.44686,0,0,0
 16:28:06.326,-11.0607,9.52681,-4.46161,0,0,0
 16:28:06.335,-10.9152,9.45063,-4.50834,0,0,0
 16:28:06.346,-10.7763,9.39624,-4.57643,0,0,0
 16:28:06.356,-10.6056,9.3834,-4.66342,0,0,0
 16:28:06.366,-10.373,9.42478,-4.75731,0,0,0
 16:28:06.376,-10.0567,9.51671,-4.83474,0,0,0
 16:28:06.386,-9.67672,9.59479,-4.85777,0,0,0
 16:28:06.396,-9.29641,9.61182,-4.82357,0,0,0
 16:28:06.406,-8.93583,9.58422,-4.75212,0,0,0
 16:28:06.416,-8.60006,9.54585,-4.66451,0,0,0
 16:28:06.426,-8.31141,9.53973,-4.57399,0,0,0
 16:28:06.436,-8.0814,9.53146,-4.50147,0,0,0
 16:28:06.446,-7.88086,9.51045,-4.44711,0,0,0
 16:28:06.456,-7.67458,9.48979,-4.39297,0,0,0
 16:28:06.466,-7.45654,9.50502,-4.45263,0,0,0
 16:28:06.476,-7.2084,9.5188,-4.51225,0,0,0
 16:28:06.486,-6.93012,9.50772,-4.55859,0,0,0
 16:28:06.496,-6.59563,9.49596,-4.60822,0,0,0
 16:28:06.506,-6.20926,9.47696,-4.67156,0,0,0
 16:28:06.515,-5.80669,9.42275,-4.74623,0,0,0
 16:28:06.526,-5.43845,9.365,-4.8255,0,0,0
 16:28:06.536,-5.14156,9.33682,-4.91097,0,0,0
 16:28:06.545,-4.91314,9.32595,-5.00555,0,0,0
 16:28:06.556,-4.72553,9.31965,-5.12446,0,0,0
 16:28:06.566,-4.54923,9.32359,-5.2806,0,0,0
 16:28:06.576,-4.3675,9.35208,-5.47163,0,0,0
 16:28:06.586,-4.18811,9.3974,-5.68671,0,0,0
 16:28:06.596,-4.02247,9.44206,-5.90151,0,0,0
 16:28:06.606,-3.86926,9.50293,-6.10193,0,0,0
 16:28:06.616,-3.70413,9.57764,-6.287,0,0,0
 16:28:06.626,-3.5152,9.67793,-6.45003,0,0,0
 16:28:06.636,-3.32912,9.76973,-6.57855,0,0,0
 16:28:06.646,-3.20147,9.82981,-6.65845,0,0,0
 16:28:06.656,-3.14194,9.86081,-6.70801,0,0,0
 16:28:06.666,-3.13619,9.86386,-6.75415,0,0,0
 16:28:06.676,-3.15975,9.8528,-6.81992,0,0,0
 16:28:06.686,-3.20786,9.85313,-6.91446,0,0,0
 16:28:06.696,-3.27035,9.89656,-7.04408,0,0,0
 16:28:06.706,-3.33673,9.99048,-7.20186,0,0,0
 16:28:06.716,-3.40284,10.115,-7.36349,0,0,0
 16:28:06.726,-3.48293,10.2461,-7.49441,0,0,0
 16:28:06.736,-3.56193,10.3761,-7.62546,0,0,0
 16:28:06.746,-3.63303,10.5049,-7.75663,0,0,0
 16:28:06.756,-3.72787,10.6303,-7.81857,0,0,0
 16:28:06.766,-3.83884,10.7723,-7.89997,0,0,0
 16:28:06.776,-3.93807,10.9187,-8.00745,0,0,0
 16:28:06.786,-4.01782,11.0496,-8.12597,0,0,0
 16:28:06.796,-4.07722,11.1364,-8.23223,0,0,0
 16:28:06.806,-4.12179,11.1927,-8.30756,0,0,0
 16:28:06.816,-4.15779,11.2304,-8.33532,0,0,0
 16:28:06.825,-4.19884,11.2703,-8.32706,0,0,0
 16:28:06.836,-4.24886,11.3055,-8.30369,0,0,0
 16:28:06.846,-4.28704,11.3303,-8.28333,0,0,0
 16:28:06.856,-4.35164,11.3142,-8.24485,0,0,0
 16:28:06.866,-4.42123,11.2832,-8.20139,0,0,0
 16:28:06.876,-4.49016,11.301,-8.14883,0,0,0
 16:28:06.886,-4.57397,11.2977,-8.08423,0,0,0
 16:28:06.896,-4.66852,11.2442,-8.0143,0,0,0
 16:28:06.906,-4.76894,11.1664,-7.93959,0,0,0
 16:28:06.915,-4.86299,11.0804,-7.87117,0,0,0
 16:28:06.926,-4.94691,10.9894,-7.8165,0,0,0
 16:28:06.936,-5.01808,10.9226,-7.78203,0,0,0
 16:28:06.946,-5.07646,10.8727,-7.75156,0,0,0
 16:28:06.956,-5.12669,10.8142,-7.71175,0,0,0
 16:28:06.966,-5.18576,10.74,-7.65252,0,0,0
 16:28:06.976,-5.26541,10.6748,-7.58215,0,0,0
 16:28:06.986,-5.36369,10.6215,-7.51901,0,0,0
 16:28:06.996,-5.48455,10.5679,-7.47876,0,0,0
 16:28:07.006,-5.59188,10.5246,-7.44553,0,0,0
 16:28:07.016,-5.75635,10.4105,-7.3797,0,0,0
 16:28:07.026,-5.92897,10.2973,-7.31364,0,0,0
 16:28:07.036,-6.08236,10.226,-7.27399,0,0,0
 16:28:07.045,-6.25833,10.1899,-7.25214,0,0,0
 16:28:07.056,-6.46086,10.1482,-7.24453,0,0,0
 16:28:07.066,-6.6743,10.1022,-7.25317,0,0,0
 16:28:07.076,-6.87499,10.0806,-7.2718,0,0,0
 16:28:07.086,-7.07484,10.0616,-7.28244,0,0,0
 16:28:07.096,-7.28407,10.0356,-7.29185,0,0,0
 16:28:07.106,-7.51347,10.0012,-7.29763,0,0,0
 16:28:07.115,-7.76559,9.97128,-7.31444,0,0,0
 16:28:07.126,-8.03058,9.93437,-7.34296,0,0,0
 16:28:07.136,-8.3061,9.89851,-7.37045,0,0,0
 16:28:07.146,-8.57615,9.82316,-7.38088,0,0,0
 16:28:07.156,-8.83628,9.70921,-7.36344,0,0,0
 16:28:07.166,-9.09225,9.59535,-7.32444,0,0,0
 16:28:07.176,-9.33786,9.4558,-7.28941,0,0,0
 16:28:07.185,-9.55522,9.29145,-7.2751,0,0,0
 16:28:07.196,-9.76035,9.16055,-7.27384,0,0,0
 16:28:07.206,-9.96852,9.06956,-7.28364,0,0,0
 16:28:07.216,-10.2049,9.00352,-7.31282,0,0,0
 16:28:07.226,-10.4517,8.95145,-7.38251,0,0,0
 16:28:07.236,-10.6926,8.91448,-7.491,0,0,0
 16:28:07.246,-10.9152,8.89829,-7.61457,0,0,0
 16:28:07.256,-11.1283,8.85665,-7.7152,0,0,0
 16:28:07.266,-11.342,8.77282,-7.77748,0,0,0
 16:28:07.276,-11.5675,8.67926,-7.82511,0,0,0
 16:28:07.286,-11.7962,8.59656,-7.87379,0,0,0
 16:28:07.296,-12.0285,8.52701,-7.92336,0,0,0
 16:28:07.306,-12.2825,8.46973,-7.96904,0,0,0
 16:28:07.316,-12.547,8.41453,-8.01238,0,0,0
 16:28:07.326,-12.811,8.36001,-8.0557,0,0,0
 16:28:07.336,-13.1288,8.39612,-8.06403,0,0,0
 16:28:07.346,-13.4694,8.43581,-8.0685,0,0,0
 16:28:07.356,-13.828,8.45741,-8.08346,0,0,0
 16:28:07.366,-14.2112,8.51872,-8.1249,0,0,0
 16:28:07.376,-14.5836,8.55501,-8.19603,0,0,0
 16:28:07.386,-14.9651,8.56267,-8.30534,0,0,0
 16:28:07.396,-15.3559,8.58653,-8.43427,0,0,0
 16:28:07.406,-15.7686,8.64888,-8.57369,0,0,0
 16:28:07.416,-16.1844,8.73254,-8.72044,0,0,0
 16:28:07.426,-16.5619,8.78203,-8.84056,0,0,0
 16:28:07.436,-16.9094,8.8254,-8.93017,0,0,0
 16:28:07.446,-17.2231,8.84863,-8.99433,0,0,0
 16:28:07.456,-17.5075,8.88633,-9.05131,0,0,0
 16:28:07.466,-17.7632,8.94875,-9.10207,0,0,0
 16:28:07.476,-17.9982,8.99714,-9.13463,0,0,0
 16:28:07.486,-18.233,9.03765,-9.14047,0,0,0
 16:28:07.496,-18.4396,9.08113,-9.12734,0,0,0
 16:28:07.506,-18.6145,9.09516,-9.08702,0,0,0
 16:28:07.516,-18.7781,9.09788,-9.03143,0,0,0
 16:28:07.526,-18.9525,9.10091,-8.98873,0,0,0
 16:28:07.536,-19.1286,9.1144,-8.98049,0,0,0
 16:28:07.546,-19.2987,9.13916,-9.0091,0,0,0
 16:28:07.556,-19.4722,9.16013,-9.05712,0,0,0
 16:28:07.567,-19.644,9.17345,-9.10133,0,0,0
 16:28:07.576,-19.8051,9.18101,-9.13063,0,0,0
 16:28:07.586,-19.9716,9.20329,-9.1536,0,0,0
 16:28:07.596,-20.133,9.22739,-9.18103,0,0,0
 16:28:07.606,-20.292,9.24774,-9.21216,0,0,0
 16:28:07.617,-20.4484,9.268,-9.24332,0,0,0
 16:28:07.626,-20.6016,9.36313,-9.27563,0,0,0
 16:28:07.636,-20.7513,9.43687,-9.2904,0,0,0
 16:28:07.646,-20.8891,9.45811,-9.28326,0,0,0
 16:28:07.656,-21.0092,9.43935,-9.24883,0,0,0
 16:28:07.666,-21.1201,9.41576,-9.18946,0,0,0
 16:28:07.676,-21.2397,9.3931,-9.12418,0,0,0
 16:28:07.686,-21.3769,9.38288,-9.07094,0,0,0
 16:28:07.696,-21.5326,9.39657,-9.04457,0,0,0
 16:28:07.706,-21.6902,9.4283,-9.05505,0,0,0
 16:28:07.716,-21.8363,9.47796,-9.10511,0,0,0
 16:28:07.726,-21.9722,9.56009,-9.17679,0,0,0
 16:28:07.736,-22.1064,9.65954,-9.24003,0,0,0
 16:28:07.746,-22.2404,9.75774,-9.27234,0,0,0
 16:28:07.755,-22.3681,9.83821,-9.27466,0,0,0
 16:28:07.766,-22.4754,9.86681,-9.24916,0,0,0
 16:28:07.776,-22.5537,9.85366,-9.21777,0,0,0
 16:28:07.786,-22.6188,9.85392,-9.1935,0,0,0
 16:28:07.796,-22.7138,9.88432,-9.1491,0,0,0
 16:28:07.806,-22.8549,9.95085,-9.07206,0,0,0
 16:28:07.816,-23.0528,10.0063,-8.97397,0,0,0
 16:28:07.826,-23.2723,10.0638,-8.86774,0,0,0
 16:28:07.836,-23.4989,10.0848,-8.76053,0,0,0
 16:28:07.846,-23.712,10.1007,-8.68923,0,0,0
 16:28:07.856,-23.8776,10.148,-8.66429,0,0,0
 16:28:07.866,-24.0189,10.2153,-8.65781,0,0,0
 16:28:07.876,-24.158,10.2655,-8.66529,0,0,0
 16:28:07.886,-24.2914,10.328,-8.67431,0,0,0
 16:28:07.898,-24.4235,10.39,-8.68325,0,0,0
 16:28:07.906,-24.6146,10.4975,-8.67608,0,0,0
 16:28:07.916,-24.8077,10.5955,-8.6435,0,0,0
 16:28:07.926,-24.9876,10.6723,-8.59855,0,0,0
 16:28:07.936,-25.1422,10.7399,-8.55984,0,0,0
 16:28:07.946,-25.2772,10.8133,-8.53448,0,0,0
 16:28:07.956,-25.4082,10.895,-8.50981,0,0,0
 16:28:07.966,-25.5362,10.974,-8.48302,0,0,0
 16:28:07.976,-25.6631,11.0756,-8.45602,0,0,0
 16:28:07.986,-25.8084,11.192,-8.42881,0,0,0
 16:28:07.996,-25.9618,11.3061,-8.3986,0,0,0
 16:28:08.006,-26.1081,11.4117,-8.361,0,0,0
 16:28:08.016,-26.2616,11.494,-8.32689,0,0,0
 16:28:08.026,-26.4201,11.5466,-8.30637,0,0,0
 16:28:08.036,-26.5693,11.6062,-8.31169,0,0,0
 16:28:08.046,-26.7013,11.6745,-8.33914,0,0,0
 16:28:08.055,-26.8444,11.7557,-8.37758,0,0,0
 16:28:08.066,-27.0057,11.8641,-8.40838,0,0,0
 16:28:08.076,-27.1747,11.9711,-8.41417,0,0,0
 16:28:08.086,-27.3365,12.0409,-8.39404,0,0,0
 16:28:08.096,-27.4809,12.0973,-8.36054,0,0,0
 16:28:08.106,-27.6075,12.1312,-8.32713,0,0,0
 16:28:08.116,-27.7155,12.1467,-8.30827,0,0,0
 16:28:08.126,-27.8024,12.1625,-8.30787,0,0,0
 16:28:08.136,-27.8885,12.1873,-8.32162,0,0,0
 16:28:08.146,-27.9764,12.2264,-8.34756,0,0,0
 16:28:08.156,-28.0712,12.2852,-8.37103,0,0,0
 16:28:08.166,-28.1665,12.349,-8.37759,0,0,0
 16:28:08.176,-28.2632,12.4107,-8.38024,0,0,0
 16:28:08.186,-28.3522,12.4718,-8.38276,0,0,0
 16:28:08.196,-28.4088,12.4616,-8.37831,0,0,0
 16:28:08.206,-28.4435,12.4301,-8.39535,0,0,0
 16:28:08.216,-28.4689,12.4089,-8.42968,0,0,0
 16:28:08.226,-28.505,12.4375,-8.46767,0,0,0
 16:28:08.236,-28.5654,12.5054,-8.51475,0,0,0
 16:28:08.246,-28.6288,12.5837,-8.56717,0,0,0
 16:28:08.256,-28.6668,12.6446,-8.60019,0,0,0
 16:28:08.266,-28.6933,12.6926,-8.5722,0,0,0
 16:28:08.276,-28.7376,12.7165,-8.50039,0,0,0
 16:28:08.286,-28.7947,12.7258,-8.44739,0,0,0
 16:28:08.296,-28.861,12.7499,-8.43426,0,0,0
 16:28:08.306,-28.9233,12.7849,-8.44566,0,0,0
 16:28:08.316,-28.9588,12.7752,-8.45213,0,0,0
 16:28:08.326,-28.9579,12.7271,-8.4511,0,0,0
 16:28:08.336,-28.9463,12.6887,-8.43999,0,0,0
 16:28:08.346,-28.9516,12.7009,-8.43899,0,0,0
 16:28:08.356,-28.9686,12.7569,-8.45683,0,0,0
 16:28:08.366,-28.9923,12.8162,-8.50338,0,0,0
 16:28:08.376,-28.9993,12.8708,-8.5584,0,0,0
 16:28:08.386,-29.0174,12.9172,-8.57772,0,0,0
 16:28:08.396,-29.0456,12.9329,-8.56306,0,0,0
 16:28:08.406,-29.0661,12.9279,-8.56121,0,0,0
 16:28:08.416,-29.0731,12.9279,-8.58302,0,0,0
 16:28:08.426,-29.053,12.9266,-8.61463,0,0,0
 16:28:08.436,-28.9934,12.9072,-8.63995,0,0,0
 16:28:08.446,-28.899,12.8749,-8.65396,0,0,0
 16:28:08.456,-28.7903,12.8402,-8.67365,0,0,0
 16:28:08.466,-28.6934,12.8061,-8.69376,0,0,0
 16:28:08.476,-28.4699,12.7966,-8.8013,0,0,0
 16:28:08.486,-28.23,12.8395,-8.88964,0,0,0
 16:28:08.496,-27.972,12.9184,-8.9378,0,0,0
 16:28:08.506,-27.6856,12.9772,-8.93426,0,0,0
 16:28:08.516,-27.3317,12.9836,-8.88997,0,0,0
 16:28:08.526,-26.8998,12.9109,-8.80628,0,0,0
 16:28:08.536,-26.4024,12.7565,-8.70079,0,0,0
 16:28:08.546,-25.8573,12.5284,-8.58468,0,0,0
 16:28:08.556,-25.2711,12.2507,-8.48296,0,0,0
 16:28:08.566,-24.6849,11.9581,-8.40915,0,0,0
 16:28:08.576,-24.1204,11.7017,-8.40339,0,0,0
 16:28:08.586,-23.5822,11.529,-8.46854,0,0,0
 16:28:08.596,-23.0511,11.4431,-8.56807,0,0,0
 16:28:08.606,-22.5449,11.4257,-8.64265,0,0,0
 16:28:08.616,-22.0901,11.4826,-8.62698,0,0,0
 16:28:08.626,-21.7034,11.5627,-8.51677,0,0,0
 16:28:08.636,-21.3406,11.6087,-8.3568,0,0,0
 16:28:08.646,-20.9533,11.594,-8.1886,0,0,0
 16:28:08.656,-20.516,11.5027,-8.0414,0,0,0
 16:28:08.665,-20.0356,11.3329,-7.94118,0,0,0
 16:28:08.676,-19.5187,11.092,-7.91609,0,0,0
 16:28:08.686,-18.9621,10.8131,-7.98491,0,0,0
 16:28:08.695,-18.4061,10.5957,-8.10508,0,0,0
 16:28:08.706,-17.9297,10.4797,-8.21663,0,0,0
 16:28:08.716,-17.5513,10.4634,-8.2686,0,0,0
 16:28:08.726,-17.2331,10.4703,-8.27497,0,0,0
 16:28:08.736,-16.9188,10.4383,-8.26622,0,0,0
 16:28:08.746,-16.5685,10.3821,-8.26059,0,0,0
 16:28:08.756,-16.0738,10.1639,-8.28039,0,0,0
 16:28:08.766,-15.5115,9.81203,-8.32205,0,0,0
 16:28:08.776,-14.9264,9.39704,-8.3967,0,0,0
 16:28:08.786,-14.3481,9.03032,-8.5066,0,0,0
 16:28:08.796,-13.811,8.74514,-8.63669,0,0,0
 16:28:08.806,-13.3038,8.49949,-8.76688,0,0,0
 16:28:08.816,-12.7904,8.2745,-8.89215,0,0,0
 16:28:08.826,-12.2488,8.05025,-9.00188,0,0,0
 16:28:08.836,-11.664,7.81477,-9.10012,0,0,0
 16:28:08.846,-11.0062,7.53205,-9.19582,0,0,0
 16:28:08.856,-10.2652,7.14484,-9.30234,0,0,0
 16:28:08.866,-9.42822,6.6033,-9.46437,0,0,0
 16:28:08.876,-8.4844,6.00764,-9.67813,0,0,0
 16:28:08.886,-7.49491,5.51996,-9.8407,0,0,0
 16:28:08.897,-6.57159,5.24135,-9.86766,0,0,0
 16:28:08.906,-5.77927,5.14333,-9.713,0,0,0
 16:28:08.916,-5.17394,5.10744,-9.4233,0,0,0
 16:28:08.926,-4.7065,5.05867,-9.09964,0,0,0
 16:28:08.936,-4.27941,4.95535,-8.8518,0,0,0
 16:28:08.946,-3.80853,4.76925,-8.70941,0,0,0
 16:28:08.956,-3.29587,4.50007,-8.64151,0,0,0
 16:28:08.966,-2.77402,4.12722,-8.6316,0,0,0
 16:28:08.976,-2.26203,3.67749,-8.68148,0,0,0
 16:28:08.986,-1.77213,3.24359,-8.75926,0,0,0
 16:28:08.996,-1.3384,2.95121,-8.80111,0,0,0
 16:28:09.006,-1.00761,2.81699,-8.74557,0,0,0
 16:28:09.015,-0.793309,2.80881,-8.60668,0,0,0
 16:28:09.026,-0.599273,2.81002,-8.45499,0,0,0
 16:28:09.036,-0.372955,2.81176,-8.30312,0,0,0
 16:28:09.045,-0.163802,2.68023,-8.16487,0,0,0
 16:28:09.056,0.0456904,2.50532,-8.03225,0,0,0
 16:28:09.066,0.238023,2.29949,-7.90411,0,0,0
 16:28:09.076,0.39531,2.12271,-7.78864,0,0,0
 16:28:09.086,0.47979,2.07051,-7.67308,0,0,0
 16:28:09.096,0.472481,2.13672,-7.55397,0,0,0
 16:28:09.106,0.417086,2.22019,-7.44976,0,0,0
 16:28:09.116,0.357264,2.25325,-7.3847,0,0,0
 16:28:09.126,0.329027,2.23787,-7.36853,0,0,0
 16:28:09.136,0.340202,2.21538,-7.38743,0,0,0
 16:28:09.146,0.361697,2.19584,-7.40706,0,0,0
 16:28:09.156,0.367019,2.16607,-7.41061,0,0,0
 16:28:09.166,0.355082,2.13187,-7.40611,0,0,0
 16:28:09.176,0.329817,2.12872,-7.39095,0,0,0
 16:28:09.186,0.262927,2.13451,-7.37125,0,0,0
 16:28:09.196,0.183513,2.14513,-7.35863,0,0,0
 16:28:09.206,0.105207,2.17669,-7.34832,0,0,0
 16:28:09.216,0.0212636,2.19211,-7.32589,0,0,0
 16:28:09.226,-0.0500621,2.19624,-7.29759,0,0,0
 16:28:09.236,-0.104452,2.19911,-7.27322,0,0,0
 16:28:09.246,-0.155971,2.19031,-7.24923,0,0,0
 16:28:09.256,-0.209267,2.19346,-7.23179,0,0,0
 16:28:09.266,-0.255463,2.22133,-7.21861,0,0,0
 16:28:09.276,-0.283486,2.28623,-7.18389,0,0,0
 16:28:09.286,-0.318847,2.34614,-7.11735,0,0,0
 16:28:09.296,-0.353069,2.39063,-7.03529,0,0,0
 16:28:09.306,-0.353583,2.42489,-6.95996,0,0,0
 16:28:09.316,-0.340606,2.4509,-6.88521,0,0,0
 16:28:09.326,-0.329547,2.47666,-6.81046,0,0,0
 16:28:09.336,-0.351836,2.46453,-6.75024,0,0,0
 16:28:09.346,-0.396207,2.47765,-6.72389,0,0,0
 16:28:09.356,-0.454184,2.50459,-6.72815,0,0,0
 16:28:09.366,-0.498708,2.52527,-6.75328,0,0,0
 16:28:09.376,-0.530185,2.54677,-6.77796,0,0,0
 16:28:09.386,-0.586991,2.54708,-6.79271,0,0,0
 16:28:09.396,-0.650394,2.56571,-6.80215,0,0,0
 16:28:09.406,-0.704774,2.62278,-6.79045,0,0,0
 16:28:09.417,-0.746891,2.68012,-6.74112,0,0,0
 16:28:09.426,-0.772644,2.73151,-6.66632,0,0,0
 16:28:09.436,-0.789888,2.76845,-6.59306,0,0,0
 16:28:09.446,-0.80246,2.78597,-6.5468,0,0,0
 16:28:09.456,-0.826342,2.76467,-6.5323,0,0,0
 16:28:09.466,-0.884062,2.72704,-6.53888,0,0,0
 16:28:09.476,-0.953443,2.72576,-6.55602,0,0,0
 16:28:09.486,-1.01523,2.75339,-6.55981,0,0,0
 16:28:09.496,-1.05635,2.77047,-6.53907,0,0,0
 16:28:09.506,-1.10895,2.77033,-6.4991,0,0,0
 16:28:09.516,-1.14369,2.74134,-6.48065,0,0,0
 16:28:09.526,-1.17828,2.74586,-6.47291,0,0,0
 16:28:09.536,-1.24001,2.7446,-6.46074,0,0,0
 16:28:09.546,-1.30293,2.74935,-6.44056,0,0,0
 16:28:09.556,-1.37387,2.77948,-6.41206,0,0,0
 16:28:09.566,-1.45641,2.80868,-6.37405,0,0,0
 16:28:09.576,-1.53816,2.8235,-6.34059,0,0,0
 16:28:09.586,-1.60829,2.81391,-6.30596,0,0,0
 16:28:09.597,-1.68627,2.79562,-6.26631,0,0,0
 16:28:09.606,-1.7733,2.76584,-6.23206,0,0,0
 16:28:09.616,-1.85944,2.7363,-6.19776,0,0,0
 16:28:09.626,-1.9487,2.70701,-6.1634,0,0,0
 16:28:09.637,-2.03304,2.67996,-6.13432,0,0,0
 16:28:09.646,-2.11951,2.65484,-6.10513,0,0,0
 16:28:09.656,-2.22407,2.65186,-6.08282,0,0,0
 16:28:09.669,-2.34453,2.68285,-6.06876,0,0,0
 16:28:09.676,-2.46394,2.74499,-6.06651,0,0,0
 16:28:09.686,-2.57239,2.80033,-6.07845,0,0,0
 16:28:09.696,-2.67597,2.84979,-6.10373,0,0,0
 16:28:09.706,-2.78586,2.90131,-6.13686,0,0,0
 16:28:09.716,-2.90243,2.95483,-6.17931,0,0,0
 16:28:09.726,-3.02472,3.00589,-6.22401,0,0,0
 16:28:09.736,-3.14261,3.04371,-6.26695,0,0,0
 16:28:09.746,-3.26189,3.05929,-6.31668,0,0,0
 16:28:09.757,-3.37801,3.07145,-6.37336,0,0,0
 16:28:09.766,-3.5018,3.11668,-6.41938,0,0,0
 16:28:09.776,-3.63913,3.18739,-6.43885,0,0,0
 16:28:09.787,-3.77556,3.26124,-6.43906,0,0,0
 16:28:09.796,-3.89934,3.33591,-6.42465,0,0,0
 16:28:09.806,-4.00324,3.39485,-6.39606,0,0,0
 16:28:09.816,-4.09175,3.43833,-6.36127,0,0,0
 16:28:09.826,-4.1739,3.46003,-6.33195,0,0,0
 16:28:09.836,-4.26096,3.48103,-6.31982,0,0,0
 16:28:09.846,-4.36291,3.52222,-6.31767,0,0,0
 16:28:09.856,-4.47766,3.58462,-6.31659,0,0,0
 16:28:09.866,-4.57073,3.65081,-6.3086,0,0,0
 16:28:09.876,-4.63194,3.65933,-6.29625,0,0,0
 16:28:09.887,-4.64867,3.59231,-6.27585,0,0,0
 16:28:09.896,-4.62365,3.49544,-6.25257,0,0,0
 16:28:09.906,-4.59398,3.3985,-6.23007,0,0,0
 16:28:09.916,-4.57979,3.30255,-6.20769,0,0,0
 16:28:09.926,-4.59182,3.27802,-6.15898,0,0,0
 16:28:09.936,-4.63518,3.28542,-6.11018,0,0,0
 16:28:09.946,-4.69217,3.31204,-6.07923,0,0,0
 16:28:09.956,-4.7494,3.33071,-6.06737,0,0,0
 16:28:09.966,-4.80895,3.33052,-6.06665,0,0,0
 16:28:09.976,-4.88141,3.30901,-6.06784,0,0,0
 16:28:09.986,-4.96931,3.28621,-6.07713,0,0,0
 16:28:09.996,-5.07944,3.27511,-6.1026,0,0,0
 16:28:10.006,-5.21801,3.25651,-6.14376,0,0,0
 16:28:10.016,-5.38082,3.26413,-6.20029,0,0,0
 16:28:10.026,-5.57282,3.31512,-6.24211,0,0,0
 16:28:10.036,-5.78758,3.38274,-6.24705,0,0,0
 16:28:10.046,-6.01546,3.45701,-6.21512,0,0,0
 16:28:10.056,-6.25454,3.52335,-6.16486,0,0,0
 16:28:10.066,-6.50487,3.57071,-6.11863,0,0,0
 16:28:10.076,-6.78003,3.61524,-6.09707,0,0,0
 16:28:10.086,-7.07485,3.66375,-6.09827,0,0,0
 16:28:10.096,-7.39054,3.734,-6.1186,0,0,0
 16:28:10.106,-7.73146,3.83738,-6.13899,0,0,0
 16:28:10.116,-8.0926,3.92937,-6.14748,0,0,0
 16:28:10.126,-8.46852,4.01988,-6.13953,0,0,0
 16:28:10.136,-8.86573,4.07914,-6.11263,0,0,0
 16:28:10.146,-9.24507,4.08809,-6.07581,0,0,0
 16:28:10.156,-9.61038,4.07201,-6.04678,0,0,0
 16:28:10.166,-9.98214,4.0453,-6.01312,0,0,0
 16:28:10.176,-10.3749,4.01198,-5.9706,0,0,0
 16:28:10.186,-10.7823,3.9762,-5.92166,0,0,0
 16:28:10.196,-11.1926,3.94033,-5.87256,0,0,0
 16:28:10.206,-11.69,4.01552,-5.78088,0,0,0
 16:28:10.216,-12.2078,4.11308,-5.68631,0,0,0
 16:28:10.226,-12.7156,4.22156,-5.61045,0,0,0
 16:28:10.236,-13.1975,4.30872,-5.56816,0,0,0
 16:28:10.246,-13.632,4.37537,-5.56664,0,0,0
 16:28:10.256,-14.0242,4.46094,-5.58977,0,0,0
 16:28:10.266,-14.3847,4.5625,-5.61838,0,0,0
 16:28:10.276,-14.7148,4.65834,-5.62947,0,0,0
 16:28:10.286,-15.0277,4.71903,-5.60973,0,0,0
 16:28:10.296,-15.3171,4.76521,-5.57454,0,0,0
 16:28:10.306,-15.5799,4.80945,-5.54061,0,0,0
 16:28:10.316,-15.8098,4.85247,-5.50625,0,0,0
 16:28:10.326,-16.0328,4.91029,-5.4627,0,0,0
 16:28:10.336,-16.2421,4.9623,-5.42038,0,0,0
 16:28:10.346,-16.4337,5.00004,-5.38924,0,0,0
 16:28:10.356,-16.5967,4.9796,-5.4014,0,0,0
 16:28:10.366,-16.7211,4.91789,-5.48096,0,0,0
