Ê±¼ä,pitch_MAG,roll_MAG,yaw_MAG,gyroX_bias,gyroY_bias,gyroZ_bias,pitch_CF,roll_CF,yaw_CF,pitch_Moh,roll_Moh,yaw_moh
 20:58:49.354,0,0,0,0,0,0,-1.557,1.61528,-0.0219487,-0.00774738,0.00803432,-5.47E-07
 20:58:49.362,0,0,0,0,0,0,-1.55587,1.61472,-0.0219335,-0.0148418,0.0156979,-2.07E-06
 20:58:49.372,0,0,0,0,0,0,-1.55647,1.61474,-0.0219341,-0.0227561,0.023608,-4.68E-06
 20:58:49.383,0,0,0,0,0,0,-1.55591,1.61419,-0.021919,-0.0300611,0.0311941,-8.20E-06
 20:58:49.393,0,0,0,0,0,0,-1.55593,1.61362,-0.0219036,-0.037607,0.0387344,-1.27E-05
 20:58:49.403,0,0,0,0,0,0,-1.55536,1.61306,-0.0218884,-0.0448306,0.0462374,-1.81E-05
 20:58:49.413,0,0,0,0,0,0,-1.55482,1.6131,-0.0218895,-0.0520256,0.053996,-2.47E-05
 20:58:49.422,0,0,0,0,0,0,-1.55428,1.61314,-0.0218905,-0.0591848,0.061716,-3.23E-05
 20:58:49.432,0,0,0,0,0,0,-1.55315,1.61258,-0.0218754,-0.0660163,0.0691049,-4.04E-05
 20:58:49.442,0,0,0,0,0,0,-1.55321,1.61263,-0.0218766,-0.073391,0.0767496,-4.98E-05
 20:58:49.452,0,0,0,0,0,0,-1.5527,1.61269,-0.0218782,-0.0804515,0.0843647,-6.00E-05
 20:58:49.462,0,0,0,0,0,0,-1.55219,1.61217,-0.0218642,-0.0874771,0.0916564,-7.08E-05
 20:58:49.472,0,0,0,0,0,0,-1.55112,1.61165,-0.0218502,-0.0941824,0.0989121,-8.24E-05
 20:58:49.482,0,0,0,0,0,0,-1.55121,1.61172,-0.0218521,-0.101425,0.106417,-9.53E-05
 20:58:49.492,0,0,0,0,0,0,-1.5513,1.61121,-0.0218383,-0.108632,0.113599,-0.00010853
 20:58:49.503,0,0,0,0,0,0,-1.55083,1.61072,-0.0218251,-0.115525,0.120753,-0.000122618
 20:58:49.513,0,0,0,0,0,0,-1.55034,1.61022,-0.0218116,-0.122376,0.127864,-0.000137479
 20:58:49.523,0,0,0,0,0,0,-1.54927,1.61029,-0.0218134,-0.1289,0.135217,-0.000153715
 20:58:49.533,0,0,0,0,0,0,-1.54938,1.61037,-0.0218156,-0.13597,0.142541,-0.000170756
 20:58:49.543,0,0,0,0,0,0,-1.5483,1.61042,-0.0218169,-0.142419,0.149812,-0.000188545
 20:58:49.553,0,0,0,0,0,0,-1.54783,1.61049,-0.0218187,-0.149129,0.157056,-0.000207099
 20:58:49.563,0,0,0,0,0,0,-1.54737,1.61057,-0.0218209,-0.155813,0.164272,-0.000226431
 20:58:49.573,0,0,0,0,0,0,-1.54753,1.6101,-0.0218083,-0.162764,0.171182,-0.000245767
 20:58:49.583,0,0,0,0,0,0,-1.54711,1.61022,-0.0218114,-0.169396,0.178343,-0.000266667
 20:58:49.593,0,0,0,0,0,0,-1.54666,1.60972,-0.0217981,-0.175979,0.185168,-0.000287372
 20:58:49.603,0,0,0,0,0,0,-1.54622,1.60923,-0.0217849,-0.182529,0.191958,-0.000308758
 20:58:49.613,0,0,0,0,0,0,-1.54578,1.60875,-0.0217718,-0.189047,0.198715,-0.000330813
 20:58:49.623,0,0,0,0,0,0,-1.54532,1.60939,-0.0217891,-0.195517,0.205992,-0.000355404
 20:58:49.632,0,0,0,0,0,0,-1.54488,1.60947,-0.0217911,-0.201963,0.212956,-0.000379724
 20:58:49.645,0,0,0,0,0,0,-1.54501,1.60896,-0.0217776,-0.208661,0.2196,-0.000403687
 20:58:49.652,0,0,0,0,0,0,-1.54513,1.60845,-0.0217637,-0.215319,0.226204,-0.000428278
 20:58:49.662,0,0,0,0,0,0,-1.54468,1.60794,-0.02175,-0.221659,0.232775,-0.000453501
 20:58:49.673,0,0,0,0,0,0,-1.54422,1.60744,-0.0217365,-0.227967,0.239313,-0.000479326
 20:58:49.683,0,0,0,0,0,0,-1.54377,1.60752,-0.0217386,-0.234243,0.246103,-0.000506901
 20:58:49.693,0,0,0,0,0,0,-1.54333,1.60759,-0.0217407,-0.240489,0.25286,-0.000535083
 20:58:49.703,0,0,0,0,0,0,-1.54292,1.6077,-0.0217436,-0.246718,0.259599,-0.000563931
 20:58:49.713,0,0,0,0,0,0,-1.54136,1.60781,-0.0217465,-0.252346,0.266305,-0.000593344
 20:58:49.723,0,0,0,0,0,0,-1.54041,1.60794,-0.0217499,-0.258238,0.272986,-0.000623318
 20:58:49.733,0,0,0,0,0,0,-1.53945,1.60804,-0.0217527,-0.264094,0.279625,-0.000653791
 20:58:49.743,0,0,0,0,0,0,-1.53908,1.60815,-0.0217555,-0.270205,0.286231,-0.000684801
 20:58:49.753,0,0,0,0,0,0,-1.53812,1.60823,-0.0217579,-0.275994,0.292796,-0.000716311
 20:58:49.763,0,0,0,0,0,0,-1.53719,1.60834,-0.0217606,-0.281762,0.299337,-0.000748368
 20:58:49.773,0,0,0,0,0,0,-1.53682,1.60842,-0.0217629,-0.287778,0.305837,-0.000780892
 20:58:49.783,0,0,0,0,0,0,-1.53646,1.60851,-0.0217652,-0.293765,0.312305,-0.000813937
 20:58:49.793,0,0,0,0,0,0,-1.53609,1.60915,-0.0217825,-0.299714,0.319017,-0.000848939
 20:58:49.803,0,0,0,0,0,0,-1.53572,1.60921,-0.0217841,-0.305633,0.325411,-0.000882945
 20:58:49.813,0,0,0,0,0,0,-1.53538,1.60871,-0.0217707,-0.311531,0.331496,-0.000915934
 20:58:49.823,0,0,0,0,0,0,-1.53502,1.60878,-0.0217725,-0.317392,0.337828,-0.000950921
 20:58:49.833,0,0,0,0,0,0,-1.53466,1.60884,-0.0217742,-0.323224,0.344128,-0.000986381
 20:58:49.843,0,0,0,0,0,0,-1.53431,1.60833,-0.0217605,-0.329027,0.350113,-0.00102067
 20:58:49.853,0,0,0,0,0,0,-1.5334,1.60784,-0.0217474,-0.334523,0.356075,-0.00105543
 20:58:49.863,0,0,0,0,0,0,-1.53309,1.60795,-0.0217502,-0.340285,0.362301,-0.00109234
 20:58:49.873,0,0,0,0,0,0,-1.5322,1.60748,-0.0217376,-0.345732,0.368211,-0.00112796
 20:58:49.883,0,0,0,0,0,0,-1.5319,1.60759,-0.0217406,-0.351438,0.374376,-0.00116572
 20:58:49.893,0,0,0,0,0,0,-1.53161,1.6077,-0.0217435,-0.357116,0.380511,-0.00120391
 20:58:49.903,0,0,0,0,0,0,-1.5313,1.60779,-0.0217459,-0.362757,0.386608,-0.00124247
 20:58:49.913,0,0,0,0,0,0,-1.53159,1.6079,-0.0217488,-0.368664,0.392682,-0.00128149
 20:58:49.923,0,0,0,0,0,0,-1.53131,1.60802,-0.0217521,-0.374263,0.398734,-0.00132099
 20:58:49.933,0,0,0,0,0,0,-1.53101,1.60811,-0.0217545,-0.379819,0.404739,-0.00136078
 20:58:49.943,0,0,0,0,0,0,-1.53013,1.6082,-0.0217568,-0.385063,0.410715,-0.00140094
 20:58:49.953,0,0,0,0,0,0,-1.52982,1.60769,-0.0217433,-0.390558,0.416368,-0.00143946
 20:58:49.963,0,0,0,0,0,0,-1.52952,1.60719,-0.02173,-0.396026,0.421993,-0.00147832
 20:58:49.973,0,0,0,0,0,0,-1.52922,1.60727,-0.0217321,-0.401466,0.427875,-0.00151953
 20:58:49.983,0,0,0,0,0,0,-1.52892,1.60735,-0.0217343,-0.40688,0.433728,-0.0015611
 20:58:49.993,0,0,0,0,0,0,-1.52862,1.60743,-0.0217364,-0.412266,0.439551,-0.00160301
 20:58:50.003,0,0,0,0,0,0,-1.52833,1.60751,-0.0217385,-0.417626,0.445346,-0.00164526
 20:58:50.013,0,0,0,0,0,0,-1.52804,1.60759,-0.0217405,-0.422959,0.451112,-0.00168784
 20:58:50.023,0,0,0,0,0,0,-1.52836,1.60712,-0.0217281,-0.428566,0.456579,-0.00172873
 20:58:50.033,0,0,0,0,0,0,-1.5281,1.60723,-0.0217311,-0.43386,0.462305,-0.00177211
 20:58:50.043,0,0,0,0,0,0,-1.52784,1.60734,-0.0217341,-0.439127,0.468003,-0.00181581
 20:58:50.053,0,0,0,0,0,0,-1.52756,1.60742,-0.0217362,-0.444354,0.473656,-0.00185969
 20:58:50.064,0,0,0,0,0,0,-1.52784,1.60749,-0.0217379,-0.449831,0.479273,-0.0019038
 20:58:50.073,0,0,0,0,0,0,-1.52813,1.60699,-0.0217246,-0.455289,0.484585,-0.00194603
 20:58:50.083,0,0,0,0,0,0,-1.52786,1.60709,-0.0217272,-0.460442,0.490163,-0.00199091
 20:58:50.093,0,0,0,0,0,0,-1.52757,1.60659,-0.0217141,-0.465562,0.495421,-0.00203368
 20:58:50.103,0,0,0,0,0,0,-1.52731,1.60612,-0.0217014,-0.470664,0.500661,-0.00207677
 20:58:50.113,0,0,0,0,0,0,-1.52704,1.60565,-0.0216889,-0.475741,0.505875,-0.00212011
 20:58:50.123,0,0,0,0,0,0,-1.52678,1.60576,-0.0216919,-0.480792,0.511348,-0.0021661
 20:58:50.133,0,0,0,0,0,0,-1.52652,1.60587,-0.0216949,-0.485819,0.516793,-0.00221235
 20:58:50.143,0,0,0,0,0,0,-1.52625,1.60597,-0.0216974,-0.490812,0.522204,-0.00225877
 20:58:50.153,0,0,0,0,0,0,-1.52598,1.60606,-0.0216999,-0.495781,0.527587,-0.00230543
 20:58:50.163,0,0,0,0,0,0,-1.52514,1.60615,-0.0217023,-0.500441,0.532944,-0.00235233
 20:58:50.173,0,0,0,0,0,0,-1.52431,1.60624,-0.0217048,-0.505077,0.538274,-0.00239942
 20:58:50.183,0,0,0,0,0,0,-1.52409,1.60579,-0.0216927,-0.50999,0.543309,-0.00244431
 20:58:50.193,0,0,0,0,0,0,-1.52385,1.6059,-0.0216956,-0.514871,0.548595,-0.00249191
 20:58:50.203,0,0,0,0,0,0,-1.52362,1.60601,-0.0216986,-0.519728,0.553856,-0.00253973
 20:58:50.213,0,0,0,0,0,0,-1.5234,1.60612,-0.0217014,-0.52456,0.55909,-0.00258775
 20:58:50.223,0,0,0,0,0,0,-1.52317,1.60565,-0.021689,-0.529369,0.564013,-0.00263332
 20:58:50.234,0,0,0,0,0,0,-1.52295,1.60519,-0.0216766,-0.534153,0.568911,-0.00267908
 20:58:50.243,0,0,0,0,0,0,-1.52271,1.60529,-0.0216793,-0.538907,0.574062,-0.00272765
 20:58:50.253,0,0,0,0,0,0,-1.52248,1.60539,-0.021682,-0.543636,0.579188,-0.00277639
 20:58:50.263,0,0,0,0,0,0,-1.52226,1.6055,-0.021685,-0.54835,0.584296,-0.0028254
 20:58:50.273,0,0,0,0,0,0,-1.52147,1.60562,-0.0216881,-0.552755,0.589379,-0.00287458
 20:58:50.283,0,0,0,0,0,0,-1.52127,1.60573,-0.0216911,-0.557423,0.594437,-0.00292391
 20:58:50.293,0,0,0,0,0,0,-1.52105,1.60582,-0.0216936,-0.56206,0.599461,-0.00297332
 20:58:50.304,0,0,0,0,0,0,-1.52141,1.60592,-0.0216961,-0.56696,0.60446,-0.0030229
 20:58:50.314,0,0,0,0,0,0,-1.52176,1.60601,-0.0216986,-0.571835,0.609434,-0.00307266
 20:58:50.324,0,0,0,0,0,0,-1.52155,1.60612,-0.0217015,-0.576408,0.614392,-0.00312267
 20:58:50.334,0,0,0,0,0,0,-1.52136,1.60567,-0.0216894,-0.580966,0.619048,-0.00317
 20:58:50.344,0,0,0,0,0,0,-1.52117,1.60522,-0.0216775,-0.585501,0.62368,-0.00321747
 20:58:50.354,0,0,0,0,0,0,-1.52041,1.60477,-0.0216657,-0.589729,0.62829,-0.00326506
 20:58:50.364,0,0,0,0,0,0,-1.52021,1.60432,-0.0216536,-0.594213,0.632869,-0.00331268
 20:58:50.374,0,0,0,0,0,0,-1.5206,1.60444,-0.021657,-0.59896,0.63771,-0.00336342
 20:58:50.383,0,0,0,0,0,0,-1.52036,1.60452,-0.021659,-0.603376,0.642503,-0.00341404
 20:58:50.394,0,0,0,0,0,0,-1.52013,1.60461,-0.0216614,-0.607777,0.64728,-0.00346488
 20:58:50.404,0,0,0,0,0,0,-1.51992,1.60472,-0.0216642,-0.612164,0.652041,-0.00351591
 20:58:50.414,0,0,0,0,0,0,-1.52029,1.60425,-0.0216517,-0.616814,0.656494,-0.00356396
 20:58:50.424,0,0,0,0,0,0,-1.52012,1.60381,-0.0216402,-0.621172,0.66094,-0.00361231
 20:58:50.434,0,0,0,0,0,0,-1.52048,1.60335,-0.021628,-0.625777,0.665349,-0.00366059
 20:58:50.444,0,0,0,0,0,0,-1.52027,1.60347,-0.0216311,-0.630074,0.670021,-0.00371213
 20:58:50.454,0,0,0,0,0,0,-1.52006,1.60301,-0.021619,-0.63435,0.674384,-0.00376059
 20:58:50.464,0,0,0,0,0,0,-1.51931,1.60259,-0.0216078,-0.638335,0.678742,-0.00380932
 20:58:50.473,0,0,0,0,0,0,-1.5197,1.60215,-0.0215962,-0.642862,0.683069,-0.00385801
 20:58:50.484,0,0,0,0,0,0,-1.52009,1.60173,-0.0215849,-0.647367,0.687375,-0.0039068
 20:58:50.494,0,0,0,0,0,0,-1.51992,1.60189,-0.0215893,-0.651572,0.691954,-0.00395905
 20:58:50.504,0,0,0,0,0,0,-1.51974,1.60148,-0.0215784,-0.655757,0.696224,-0.00400808
 20:58:50.514,0,0,0,0,0,0,-1.51957,1.60108,-0.0215676,-0.65992,0.700472,-0.00405718
 20:58:50.524,0,0,0,0,0,0,-1.51938,1.60181,-0.0215871,-0.664055,0.705263,-0.00411291
 20:58:50.534,0,0,0,0,0,0,-1.51979,1.60198,-0.0215915,-0.668462,0.709752,-0.00416545
 20:58:50.544,0,0,0,0,0,0,-1.52021,1.601,-0.0215657,-0.672855,0.713655,-0.00421142
 20:58:50.554,0,0,0,0,0,0,-1.52006,1.60005,-0.0215405,-0.676949,0.717547,-0.00425755
 20:58:50.564,0,0,0,0,0,0,-1.52043,1.60021,-0.0215445,-0.681276,0.721958,-0.00431018
 20:58:50.574,0,0,0,0,0,0,-1.52024,1.5998,-0.0215337,-0.685305,0.726071,-0.00435955
 20:58:50.584,0,0,0,0,0,0,-1.52062,1.59997,-0.0215382,-0.689599,0.730449,-0.00441242
 20:58:50.594,0,0,0,0,0,0,-1.52042,1.60014,-0.0215427,-0.693586,0.734805,-0.00446535
 20:58:50.604,0,0,0,0,0,0,-1.52023,1.59973,-0.0215318,-0.697554,0.738854,-0.00451483
 20:58:50.614,0,0,0,0,0,0,-1.52005,1.59876,-0.0215062,-0.701509,0.742605,-0.00456092
 20:58:50.624,0,0,0,0,0,0,-1.51986,1.59894,-0.021511,-0.705437,0.746901,-0.00461402
 20:58:50.634,0,0,0,0,0,0,-1.52024,1.59912,-0.0215157,-0.709631,0.751175,-0.00466714
 20:58:50.644,0,0,0,0,0,0,-1.52004,1.59928,-0.02152,-0.713511,0.755419,-0.00472022
 20:58:50.654,0,0,0,0,0,0,-1.51984,1.59946,-0.0215247,-0.717379,0.759651,-0.00477341
 20:58:50.664,0,0,0,0,0,0,-1.51911,1.59967,-0.0215302,-0.720958,0.763878,-0.00482684
 20:58:50.674,0,0,0,0,0,0,-1.51894,1.5987,-0.0215046,-0.724797,0.767505,-0.00487289
 20:58:50.684,0,0,0,0,0,0,-1.51877,1.59832,-0.0214945,-0.728617,0.771399,-0.0049226
 20:58:50.694,0,0,0,0,0,0,-1.51803,1.59794,-0.0214846,-0.732132,0.775274,-0.00497233
 20:58:50.704,0,0,0,0,0,0,-1.5173,1.59757,-0.0214747,-0.735629,0.77913,-0.00502206
 20:58:50.714,0,0,0,0,0,0,-1.51656,1.59777,-0.0214798,-0.739102,0.783243,-0.00507537
 20:58:50.724,0,0,0,0,0,0,-1.5164,1.59796,-0.0214849,-0.742843,0.787337,-0.00512867
 20:58:50.734,0,0,0,0,0,0,-1.51623,1.59813,-0.0214895,-0.746558,0.791402,-0.00518186
 20:58:50.744,0,0,0,0,0,0,-1.51664,1.59772,-0.0214788,-0.75054,0.795161,-0.00523129
 20:58:50.754,0,0,0,0,0,0,-1.51706,1.59676,-0.0214533,-0.754509,0.798625,-0.00527705
 20:58:50.764,0,0,0,0,0,0,-1.51631,1.59637,-0.0214429,-0.757881,0.802349,-0.00532653
 20:58:50.774,0,0,0,0,0,0,-1.51556,1.59656,-0.0214479,-0.761236,0.806339,-0.0053798
 20:58:50.784,0,0,0,0,0,0,-1.51482,1.59732,-0.0214681,-0.764574,0.810594,-0.00543687
 20:58:50.795,0,0,0,0,0,0,-1.51408,1.59806,-0.0214877,-0.767888,0.81482,-0.00549379
 20:58:50.805,0,0,0,0,0,0,-1.51337,1.59767,-0.0214774,-0.771201,0.818471,-0.00554317
 20:58:50.814,0,0,0,0,0,0,-1.51324,1.59729,-0.0214672,-0.774782,0.822104,-0.0055925
 20:58:50.824,0,0,0,0,0,0,-1.51314,1.59635,-0.0214423,-0.778353,0.825441,-0.00563801
 20:58:50.834,0,0,0,0,0,0,-1.51304,1.59601,-0.0214334,-0.781914,0.829055,-0.00568754
 20:58:50.844,0,0,0,0,0,0,-1.51236,1.59623,-0.0214393,-0.785164,0.832929,-0.00574088
 20:58:50.854,0,0,0,0,0,0,-1.51168,1.59645,-0.0214452,-0.788398,0.836783,-0.00579418
 20:58:50.864,0,0,0,0,0,0,-1.51101,1.59668,-0.021451,-0.791615,0.840618,-0.00584744
 20:58:50.874,0,0,0,0,0,0,-1.51036,1.59633,-0.021442,-0.794824,0.844157,-0.00589676
 20:58:50.884,0,0,0,0,0,0,-1.51028,1.59655,-0.0214478,-0.798295,0.847955,-0.00594992
 20:58:50.894,0,0,0,0,0,0,-1.5102,1.5962,-0.0214384,-0.801749,0.851449,-0.00599903
 20:58:50.904,0,0,0,0,0,0,-1.50956,1.59586,-0.0214295,-0.804908,0.854934,-0.00604821
 20:58:50.914,0,0,0,0,0,0,-1.50893,1.5961,-0.0214359,-0.80805,0.858687,-0.00610141
 20:58:50.925,0,0,0,0,0,0,-1.50829,1.59633,-0.0214418,-0.81117,0.862413,-0.00615444
 20:58:50.935,0,0,0,0,0,0,-1.50823,1.59655,-0.0214476,-0.81456,0.86612,-0.00620739
 20:58:50.945,0,0,0,0,0,0,-1.50818,1.59621,-0.0214386,-0.817941,0.869532,-0.00625631
 20:58:50.954,0,0,0,0,0,0,-1.50814,1.59587,-0.0214297,-0.821304,0.872926,-0.00630518
 20:58:50.964,0,0,0,0,0,0,-1.50866,1.59552,-0.0214205,-0.824929,0.876296,-0.00635389
 20:58:50.974,0,0,0,0,0,0,-1.50858,1.59573,-0.0214261,-0.828243,0.879927,-0.00640662
 20:58:50.984,0,0,0,0,0,0,-1.50851,1.59652,-0.0214469,-0.83154,0.883824,-0.00646347
 20:58:50.994,0,0,0,0,0,0,-1.50843,1.5973,-0.0214674,-0.834821,0.887702,-0.00652026
 20:58:51.004,0,0,0,0,0,0,-1.50837,1.59751,-0.021473,-0.838093,0.891284,-0.00657291
 20:58:51.015,0,0,0,0,0,0,-1.50831,1.59657,-0.0214481,-0.841349,0.894277,-0.00661704
 20:58:51.025,0,0,0,0,0,0,-1.50824,1.59619,-0.0214383,-0.844581,0.897533,-0.00666525
 20:58:51.035,0,0,0,0,0,0,-1.50815,1.59696,-0.0214585,-0.847789,0.901335,-0.00672179
 20:58:51.045,0,0,0,0,0,0,-1.50748,1.59714,-0.0214633,-0.850697,0.904833,-0.00677401
 20:58:51.055,0,0,0,0,0,0,-1.50796,1.59731,-0.0214677,-0.854152,0.908305,-0.006826
 20:58:51.064,0,0,0,0,0,0,-1.50733,1.59637,-0.0214429,-0.857043,0.911213,-0.00686971
 20:58:51.075,0,0,0,0,0,0,-1.50728,1.59543,-0.0214183,-0.860205,0.914107,-0.00691334
 20:58:51.085,0,0,0,0,0,0,-1.5072,1.59505,-0.0214084,-0.863336,0.917257,-0.00696102
 20:58:51.095,0,0,0,0,0,0,-1.50711,1.59524,-0.0214132,-0.866443,0.920667,-0.00701285
 20:58:51.105,0,0,0,0,0,0,-1.50703,1.59544,-0.0214185,-0.869543,0.924069,-0.00706473
 20:58:51.115,0,0,0,0,0,0,-1.50638,1.59564,-0.0214237,-0.872342,0.927454,-0.00711655
 20:58:51.125,0,0,0,0,0,0,-1.5069,1.59585,-0.0214293,-0.875705,0.930829,-0.00716838
 20:58:51.135,0,0,0,0,0,0,-1.50626,1.59548,-0.0214197,-0.878481,0.933903,-0.00721576
 20:58:51.145,0,0,0,0,0,0,-1.50621,1.59512,-0.0214101,-0.881528,0.936962,-0.00726304
 20:58:51.155,0,0,0,0,0,0,-1.50558,1.59476,-0.0214007,-0.884275,0.940006,-0.00731026
 20:58:51.165,0,0,0,0,0,0,-1.50553,1.59498,-0.0214065,-0.887294,0.943319,-0.00736183
 20:58:51.174,0,0,0,0,0,0,-1.50549,1.5952,-0.0214123,-0.890297,0.946616,-0.00741333
 20:58:51.185,0,0,0,0,0,0,-1.50544,1.596,-0.0214331,-0.893286,0.950182,-0.00746922
 20:58:51.195,0,0,0,0,0,0,-1.50597,1.59678,-0.0214538,-0.896544,0.95373,-0.00752501
 20:58:51.205,0,0,0,0,0,0,-1.50536,1.597,-0.0214595,-0.899223,0.956984,-0.00757636
 20:58:51.215,0,0,0,0,0,0,-1.50531,1.59662,-0.0214496,-0.902168,0.959928,-0.00762293
 20:58:51.225,0,0,0,0,0,0,-1.50528,1.59626,-0.0214402,-0.905105,0.962865,-0.00766955
 20:58:51.235,0,0,0,0,0,0,-1.50526,1.59591,-0.0214308,-0.908027,0.965787,-0.00771609
 20:58:51.245,0,0,0,0,0,0,-1.50463,1.59612,-0.0214364,-0.910642,0.968972,-0.007767
 20:58:51.255,0,0,0,0,0,0,-1.5046,1.59633,-0.0214418,-0.913529,0.972142,-0.0078178
 20:58:51.265,0,0,0,0,0,0,-1.50455,1.59594,-0.0214317,-0.916395,0.975003,-0.00786378
 20:58:51.275,0,0,0,0,0,0,-1.50451,1.59557,-0.021422,-0.919254,0.977857,-0.00790979
 20:58:51.285,0,0,0,0,0,0,-1.50447,1.59521,-0.0214125,-0.922098,0.980697,-0.00795572
 20:58:51.295,0,0,0,0,0,0,-1.50444,1.59543,-0.0214182,-0.924928,0.983808,-0.00800621
 20:58:51.305,0,0,0,0,0,0,-1.5044,1.59506,-0.0214086,-0.927744,0.986619,-0.00805194
 20:58:51.315,0,0,0,0,0,0,-1.50435,1.59469,-0.0213988,-0.930539,0.989407,-0.00809746
 20:58:51.325,0,0,0,0,0,0,-1.50371,1.59373,-0.0213736,-0.933028,0.99189,-0.00813809
 20:58:51.335,0,0,0,0,0,0,-1.50367,1.59337,-0.0213641,-0.935796,0.994652,-0.00818343
 20:58:51.345,0,0,0,0,0,0,-1.50305,1.59301,-0.0213547,-0.938266,0.997401,-0.00822869
 20:58:51.355,0,0,0,0,0,0,-1.50303,1.59209,-0.0213307,-0.941016,0.999859,-0.00826923
 20:58:51.365,0,0,0,0,0,0,-1.50299,1.59175,-0.0213217,-0.943744,1.00258,-0.00831431
 20:58:51.375,0,0,0,0,0,0,-1.50238,1.59198,-0.0213278,-0.946174,1.00558,-0.00836404
 20:58:51.385,0,0,0,0,0,0,-1.50236,1.59223,-0.0213344,-0.948885,1.00856,-0.00841378
 20:58:51.395,0,0,0,0,0,0,-1.50235,1.5919,-0.0213257,-0.951582,1.01125,-0.00845864
 20:58:51.405,0,0,0,0,0,0,-1.50232,1.59156,-0.0213167,-0.954258,1.01392,-0.00850326
 20:58:51.415,0,0,0,0,0,0,-1.50231,1.59181,-0.0213234,-0.956928,1.01686,-0.00855273
 20:58:51.425,0,0,0,0,0,0,-1.50229,1.59149,-0.0213148,-0.959585,1.01951,-0.00859727
 20:58:51.435,0,0,0,0,0,0,-1.50226,1.59115,-0.0213059,-0.962221,1.02213,-0.00864158
 20:58:51.445,0,0,0,0,0,0,-1.50225,1.59141,-0.0213127,-0.964852,1.02504,-0.00869076
 20:58:51.455,0,0,0,0,0,0,-1.50224,1.59224,-0.0213345,-0.967469,1.02821,-0.00874469
 20:58:51.465,0,0,0,0,0,0,-1.50222,1.59248,-0.021341,-0.970073,1.03109,-0.00879363
 20:58:51.475,0,0,0,0,0,0,-1.50222,1.59275,-0.0213478,-0.972672,1.03396,-0.00884259
 20:58:51.485,0,0,0,0,0,0,-1.5028,1.59243,-0.0213394,-0.975544,1.03653,-0.00888652
 20:58:51.495,0,0,0,0,0,0,-1.50224,1.5927,-0.0213467,-0.977837,1.03938,-0.00893545
 20:58:51.506,0,0,0,0,0,0,-1.50224,1.59296,-0.0213535,-0.980398,1.0422,-0.00898409
 20:58:51.516,0,0,0,0,0,0,-1.50224,1.59322,-0.0213602,-0.982945,1.04502,-0.00903262
 20:58:51.525,0,0,0,0,0,0,-1.50224,1.59405,-0.0213819,-0.98548,1.0481,-0.00908599
 20:58:51.535,0,0,0,0,0,0,-1.50282,1.59372,-0.0213732,-0.988288,1.0506,-0.00912928
 20:58:51.545,0,0,0,0,0,0,-1.50225,1.59282,-0.0213498,-0.990518,1.05281,-0.00916765
 20:58:51.556,0,0,0,0,0,0,-1.50285,1.59252,-0.0213418,-0.993309,1.05529,-0.00921089
 20:58:51.566,0,0,0,0,0,0,-1.50283,1.59219,-0.0213331,-0.995784,1.05775,-0.00925377
 20:58:51.576,0,0,0,0,0,0,-1.50279,1.59242,-0.0213391,-0.99824,1.06047,-0.00930142
 20:58:51.586,0,0,0,0,0,0,-1.50276,1.59264,-0.0213451,-1.00068,1.06317,-0.00934895
 20:58:51.596,0,0,0,0,0,0,-1.50273,1.59287,-0.0213511,-1.00312,1.06586,-0.00939636
 20:58:51.606,0,0,0,0,0,0,-1.50213,1.59253,-0.0213423,-1.00526,1.06827,-0.00943875
 20:58:51.616,0,0,0,0,0,0,-1.5021,1.59276,-0.0213482,-1.00767,1.07093,-0.00948592
 20:58:51.626,0,0,0,0,0,0,-1.50208,1.59299,-0.0213541,-1.01006,1.07359,-0.00953298
 20:58:51.635,0,0,0,0,0,0,-1.50146,1.59262,-0.0213444,-1.01216,1.07594,-0.0095747
 20:58:51.645,0,0,0,0,0,0,-1.50142,1.59283,-0.02135,-1.01452,1.07856,-0.00962138
 20:58:51.656,0,0,0,0,0,0,-1.50082,1.59305,-0.0213558,-1.0166,1.08117,-0.00966808
 20:58:51.665,0,0,0,0,0,0,-1.50139,1.5927,-0.0213466,-1.01924,1.08349,-0.00970951
 20:58:51.675,0,0,0,0,0,0,-1.50137,1.59235,-0.0213374,-1.02158,1.0858,-0.00975086
 20:58:51.685,0,0,0,0,0,0,-1.50079,1.59202,-0.0213287,-1.02363,1.0881,-0.00979225
 20:58:51.695,0,0,0,0,0,0,-1.50136,1.59227,-0.0213352,-1.02624,1.09068,-0.00983863
 20:58:51.705,0,0,0,0,0,0,-1.50137,1.59195,-0.0213269,-1.02856,1.09297,-0.0098799
 20:58:51.715,0,0,0,0,0,0,-1.50196,1.59164,-0.0213188,-1.03115,1.09524,-0.00992103
 20:58:51.725,0,0,0,0,0,0,-1.50139,1.59133,-0.0213107,-1.03316,1.0975,-0.0099621
 20:58:51.735,0,0,0,0,0,0,-1.50138,1.59159,-0.0213174,-1.03544,1.10004,-0.0100081
 20:58:51.745,0,0,0,0,0,0,-1.50082,1.59128,-0.0213093,-1.03743,1.10228,-0.0100489
 20:58:51.755,0,0,0,0,0,0,-1.50082,1.59153,-0.021316,-1.03968,1.10478,-0.0100946
 20:58:51.766,0,0,0,0,0,0,-1.50082,1.59179,-0.0213227,-1.04193,1.10728,-0.0101402
 20:58:51.776,0,0,0,0,0,0,-1.50024,1.59204,-0.0213292,-1.04388,1.10976,-0.0101857
 20:58:51.785,0,0,0,0,0,0,-1.50026,1.5923,-0.0213362,-1.04611,1.11223,-0.0102312
 20:58:51.795,0,0,0,0,0,0,-1.50086,1.59257,-0.0213431,-1.04861,1.1147,-0.0102766
 20:58:51.805,0,0,0,0,0,0,-1.50089,1.59226,-0.0213351,-1.05083,1.11687,-0.0103167
 20:58:51.815,0,0,0,0,0,0,-1.50092,1.59196,-0.0213273,-1.05303,1.11904,-0.0103566
 20:58:51.825,0,0,0,0,0,0,-1.50095,1.59167,-0.0213195,-1.05523,1.12119,-0.0103965
 20:58:51.835,0,0,0,0,0,0,-1.50097,1.59194,-0.0213266,-1.0574,1.12361,-0.0104414
 20:58:51.845,0,0,0,0,0,0,-1.50098,1.5922,-0.0213335,-1.05957,1.12602,-0.0104862
 20:58:51.856,0,0,0,0,0,0,-1.50039,1.59186,-0.0213245,-1.06142,1.12812,-0.0105253
 20:58:51.866,0,0,0,0,0,0,-1.50041,1.59155,-0.0213164,-1.06356,1.13022,-0.0105645
 20:58:51.876,0,0,0,0,0,0,-1.50042,1.59122,-0.0213079,-1.06569,1.1323,-0.0106034
 20:58:51.886,0,0,0,0,0,0,-1.50098,1.59089,-0.0212991,-1.06808,1.13436,-0.0106421
 20:58:51.896,0,0,0,0,0,0,-1.5004,1.59057,-0.0212908,-1.0699,1.13642,-0.0106808
 20:58:51.906,0,0,0,0,0,0,-1.50099,1.59083,-0.0212977,-1.07228,1.13876,-0.0107247
 20:58:51.916,0,0,0,0,0,0,-1.501,1.59053,-0.0212898,-1.07437,1.14081,-0.0107633
 20:58:51.926,0,0,0,0,0,0,-1.50101,1.59081,-0.0212971,-1.07645,1.14313,-0.0108072
 20:58:51.936,0,0,0,0,0,0,-1.50104,1.59111,-0.0213048,-1.07853,1.14545,-0.0108511
 20:58:51.946,0,0,0,0,0,0,-1.50107,1.59082,-0.0212973,-1.0806,1.14747,-0.0108895
 20:58:51.956,0,0,0,0,0,0,-1.50166,1.59052,-0.0212894,-1.08293,1.14947,-0.0109275
 20:58:51.966,0,0,0,0,0,0,-1.50108,1.58963,-0.0212661,-1.08467,1.15118,-0.0109599
 20:58:51.976,0,0,0,0,0,0,-1.50049,1.58988,-0.0212728,-1.0864,1.15343,-0.011003
 20:58:51.986,0,0,0,0,0,0,-1.50049,1.59015,-0.0212799,-1.08842,1.15568,-0.011046
 20:58:51.996,0,0,0,0,0,0,-1.50105,1.58983,-0.0212714,-1.0907,1.15763,-0.0110832
 20:58:52.006,0,0,0,0,0,0,-1.50104,1.58951,-0.0212629,-1.09268,1.15957,-0.0111204
 20:58:52.016,0,0,0,0,0,0,-1.50102,1.58976,-0.0212697,-1.09465,1.16178,-0.0111629
 20:58:52.026,0,0,0,0,0,0,-1.50043,1.5906,-0.0212915,-1.09633,1.16427,-0.0112109
 20:58:52.036,0,0,0,0,0,0,-1.50098,1.59025,-0.0212824,-1.09856,1.16617,-0.0112474
 20:58:52.046,0,0,0,0,0,0,-1.50095,1.58933,-0.0212584,-1.1005,1.16777,-0.0112783
 20:58:52.056,0,0,0,0,0,0,-1.50093,1.58959,-0.0212652,-1.10244,1.16994,-0.0113204
 20:58:52.066,0,0,0,0,0,0,-1.50093,1.58929,-0.0212572,-1.10437,1.17183,-0.0113569
 20:58:52.076,0,0,0,0,0,0,-1.50093,1.58956,-0.0212644,-1.10629,1.17399,-0.0113989
 20:58:52.086,0,0,0,0,0,0,-1.50151,1.58984,-0.0212716,-1.10849,1.17614,-0.0114407
 20:58:52.097,0,0,0,0,0,0,-1.50093,1.58953,-0.0212636,-1.11011,1.17799,-0.0114768
 20:58:52.106,0,0,0,0,0,0,-1.50152,1.5904,-0.0212863,-1.1123,1.18041,-0.0115241
 20:58:52.116,0,0,0,0,0,0,-1.50153,1.59068,-0.0212937,-1.11419,1.18254,-0.0115657
 20:58:52.126,0,0,0,0,0,0,-1.50152,1.59037,-0.0212854,-1.11606,1.18436,-0.0116014
 20:58:52.136,0,0,0,0,0,0,-1.50209,1.59063,-0.0212924,-1.11821,1.18646,-0.0116426
 20:58:52.146,0,0,0,0,0,0,-1.50206,1.5903,-0.0212837,-1.12006,1.18825,-0.0116778
 20:58:52.157,0,0,0,0,0,0,-1.50204,1.59055,-0.0212903,-1.1219,1.19032,-0.0117186
 20:58:52.166,0,0,0,0,0,0,-1.50143,1.59022,-0.0212817,-1.12344,1.1921,-0.0117536
 20:58:52.176,0,0,0,0,0,0,-1.5014,1.58988,-0.0212727,-1.12525,1.19386,-0.0117884
 20:58:52.186,0,0,0,0,0,0,-1.50136,1.58954,-0.0212638,-1.12706,1.19561,-0.011823
 20:58:52.197,0,0,0,0,0,0,-1.50133,1.58978,-0.0212702,-1.12885,1.19763,-0.0118631
 20:58:52.206,0,0,0,0,0,0,-1.50134,1.59007,-0.0212777,-1.13066,1.19967,-0.0119036
 20:58:52.216,0,0,0,0,0,0,-1.50133,1.59034,-0.0212847,-1.13245,1.2017,-0.0119439
 20:58:52.226,0,0,0,0,0,0,-1.50134,1.59062,-0.0212921,-1.13424,1.20372,-0.0119841
 20:58:52.236,0,0,0,0,0,0,-1.50134,1.59088,-0.021299,-1.13602,1.20572,-0.012024
 20:58:52.246,0,0,0,0,0,0,-1.50135,1.59058,-0.0212911,-1.13779,1.20743,-0.0120582
 20:58:52.257,0,0,0,0,0,0,-1.50138,1.5903,-0.0212837,-1.13956,1.20914,-0.0120925
 20:58:52.266,0,0,0,0,0,0,-1.5014,1.59002,-0.0212764,-1.14133,1.21085,-0.0121267
 20:58:52.276,0,0,0,0,0,0,-1.5014,1.58971,-0.0212683,-1.14306,1.21253,-0.0121604
 20:58:52.286,0,0,0,0,0,0,-1.50141,1.59,-0.0212759,-1.1448,1.2145,-0.0121999
 20:58:52.296,0,0,0,0,0,0,-1.50142,1.59029,-0.0212833,-1.14653,1.21645,-0.0122393
 20:58:52.306,0,0,0,0,0,0,-1.50086,1.59058,-0.0212912,-1.14797,1.21841,-0.0122787
 20:58:52.317,0,0,0,0,0,0,-1.50088,1.59029,-0.0212834,-1.14969,1.22006,-0.012312
 20:58:52.326,0,0,0,0,0,0,-1.50088,1.58998,-0.0212752,-1.15139,1.22169,-0.0123451
 20:58:52.337,0,0,0,0,0,0,-1.50088,1.59024,-0.0212823,-1.15307,1.22361,-0.0123838
 20:58:52.347,0,0,0,0,0,0,-1.50086,1.58992,-0.0212737,-1.15475,1.22522,-0.0124164
 20:58:52.357,0,0,0,0,0,0,-1.50085,1.5896,-0.0212653,-1.15641,1.22682,-0.0124489
 20:58:52.367,0,0,0,0,0,0,-1.50027,1.58987,-0.0212724,-1.15779,1.2287,-0.0124873
 20:58:52.377,0,0,0,0,0,0,-1.49972,1.58958,-0.0212648,-1.15917,1.2303,-0.0125199
 20:58:52.386,0,0,0,0,0,0,-1.49918,1.58988,-0.0212728,-1.16055,1.23219,-0.0125583
 20:58:52.396,0,0,0,0,0,0,-1.49864,1.59017,-0.0212803,-1.16192,1.23406,-0.0125965
 20:58:52.406,0,0,0,0,0,0,-1.49866,1.59044,-0.0212873,-1.16355,1.23591,-0.0126343
 20:58:52.417,0,0,0,0,0,0,-1.4981,1.59013,-0.0212791,-1.1649,1.23746,-0.0126661
 20:58:52.427,0,0,0,0,0,0,-1.49815,1.58983,-0.0212715,-1.16652,1.23902,-0.012698
 20:58:52.436,0,0,0,0,0,0,-1.49819,1.59012,-0.021279,-1.16815,1.24086,-0.0127356
 20:58:52.446,0,0,0,0,0,0,-1.49764,1.59039,-0.021286,-1.16947,1.24267,-0.012773
 20:58:52.457,0,0,0,0,0,0,-1.49769,1.59125,-0.0213084,-1.17107,1.24477,-0.0128162
 20:58:52.466,0,0,0,0,0,0,-1.49773,1.59152,-0.0213155,-1.17267,1.24658,-0.0128534
 20:58:52.477,0,0,0,0,0,0,-1.49719,1.5912,-0.0213071,-1.17397,1.24808,-0.0128844
 20:58:52.487,0,0,0,0,0,0,-1.49782,1.59147,-0.0213142,-1.17584,1.24987,-0.0129213
 20:58:52.497,0,0,0,0,0,0,-1.49729,1.59174,-0.0213213,-1.17713,1.25165,-0.0129581
 20:58:52.507,0,0,0,0,0,0,-1.49734,1.59201,-0.0213283,-1.1787,1.25342,-0.0129948
 20:58:52.517,0,0,0,0,0,0,-1.49739,1.59227,-0.0213353,-1.18026,1.25519,-0.0130313
 20:58:52.527,0,0,0,0,0,0,-1.49801,1.59254,-0.0213421,-1.18209,1.25694,-0.0130677
 20:58:52.537,0,0,0,0,0,0,-1.49862,1.5922,-0.0213334,-1.18392,1.25839,-0.0130978
 20:58:52.546,0,0,0,0,0,0,-1.49866,1.59189,-0.0213252,-1.18545,1.25984,-0.013128
 20:58:52.556,0,0,0,0,0,0,-1.4987,1.59158,-0.021317,-1.18698,1.26129,-0.0131581
 20:58:52.566,0,0,0,0,0,0,-1.49872,1.59125,-0.0213086,-1.18849,1.26272,-0.013188
 20:58:52.576,0,0,0,0,0,0,-1.49816,1.59151,-0.0213153,-1.18971,1.26443,-0.0132237
 20:58:52.586,0,0,0,0,0,0,-1.49877,1.59119,-0.0213068,-1.19149,1.26584,-0.0132532
 20:58:52.597,0,0,0,0,0,0,-1.49823,1.59088,-0.0212989,-1.1927,1.26726,-0.0132829
 20:58:52.606,0,0,0,0,0,0,-1.49883,1.59057,-0.0212906,-1.19447,1.26866,-0.0133122
 20:58:52.616,0,0,0,0,0,0,-1.49827,1.58967,-0.0212673,-1.19566,1.26976,-0.0133355
 20:58:52.627,0,0,0,0,0,0,-1.49771,1.58993,-0.021274,-1.19684,1.27143,-0.0133705
 20:58:52.637,0,0,0,0,0,0,-1.49832,1.5902,-0.021281,-1.19859,1.27309,-0.0134055
 20:58:52.647,0,0,0,0,0,0,-1.49777,1.59047,-0.021288,-1.19976,1.27475,-0.0134404
 20:58:52.656,0,0,0,0,0,0,-1.49837,1.59015,-0.0212798,-1.20149,1.27611,-0.0134691
 20:58:52.666,0,0,0,0,0,0,-1.49781,1.58925,-0.0212563,-1.20264,1.27718,-0.0134916
 20:58:52.677,0,0,0,0,0,0,-1.49782,1.58894,-0.021248,-1.20406,1.27852,-0.01352
 20:58:52.687,0,0,0,0,0,0,-1.49842,1.5892,-0.0212549,-1.20577,1.28014,-0.0135543
 20:58:52.697,0,0,0,0,0,0,-1.49785,1.58888,-0.0212466,-1.20689,1.28147,-0.0135824
 20:58:52.707,0,0,0,0,0,0,-1.49846,1.58916,-0.021254,-1.20859,1.28308,-0.0136167
 20:58:52.717,0,0,0,0,0,0,-1.49792,1.58888,-0.0212465,-1.20972,1.28441,-0.013645
 20:58:52.727,0,0,0,0,0,0,-1.49851,1.58914,-0.0212534,-1.21139,1.28601,-0.0136788
 20:58:52.737,0,0,0,0,0,0,-1.49853,1.58884,-0.0212456,-1.21278,1.28731,-0.0137066
 20:58:52.747,0,0,0,0,0,0,-1.49859,1.58916,-0.0212538,-1.21418,1.28891,-0.0137408
 20:58:52.757,0,0,0,0,0,0,-1.49805,1.58945,-0.0212615,-1.21528,1.2905,-0.0137747
 20:58:52.767,0,0,0,0,0,0,-1.49808,1.58973,-0.0212687,-1.21665,1.29207,-0.0138082
 20:58:52.777,0,0,0,0,0,0,-1.49753,1.58942,-0.0212607,-1.21773,1.29335,-0.0138355
 20:58:52.786,0,0,0,0,0,0,-1.49756,1.58912,-0.0212528,-1.21909,1.29462,-0.0138627
 20:58:52.797,0,0,0,0,0,0,-1.4976,1.58882,-0.021245,-1.22044,1.29588,-0.0138898
 20:58:52.806,0,0,0,0,0,0,-1.4976,1.58849,-0.0212364,-1.22177,1.29712,-0.0139164
 20:58:52.817,0,0,0,0,0,0,-1.49703,1.58874,-0.021243,-1.22281,1.29865,-0.0139491
 20:58:52.827,0,0,0,0,0,0,-1.49703,1.58842,-0.0212344,-1.22413,1.29987,-0.0139755
 20:58:52.837,0,0,0,0,0,0,-1.49648,1.58811,-0.0212264,-1.22517,1.3011,-0.014002
 20:58:52.847,0,0,0,0,0,0,-1.49651,1.58838,-0.0212335,-1.22648,1.30261,-0.0140345
 20:58:52.857,0,0,0,0,0,0,-1.49654,1.58807,-0.0212254,-1.22779,1.30383,-0.0140607
 20:58:52.867,0,0,0,0,0,0,-1.49601,1.58778,-0.0212179,-1.22881,1.30505,-0.014087
 20:58:52.877,0,0,0,0,0,0,-1.49602,1.58747,-0.0212096,-1.2301,1.30624,-0.0141129
 20:58:52.887,0,0,0,0,0,0,-1.49548,1.58774,-0.0212169,-1.23111,1.30773,-0.014145
 20:58:52.897,0,0,0,0,0,0,-1.4961,1.58802,-0.0212241,-1.23268,1.3092,-0.0141769
 20:58:52.907,0,0,0,0,0,0,-1.49555,1.58772,-0.0212161,-1.23367,1.31039,-0.0142026
 20:58:52.917,0,0,0,0,0,0,-1.49502,1.58799,-0.0212233,-1.23465,1.31185,-0.0142343
 20:58:52.927,0,0,0,0,0,0,-1.49507,1.58828,-0.0212309,-1.23593,1.31332,-0.0142661
 20:58:52.938,0,0,0,0,0,0,-1.49455,1.58857,-0.0212383,-1.23691,1.31477,-0.0142977
 20:58:52.947,0,0,0,0,0,0,-1.49462,1.58827,-0.0212307,-1.23818,1.31594,-0.014323
 20:58:52.957,0,0,0,0,0,0,-1.4941,1.58798,-0.0212231,-1.23915,1.31709,-0.0143482
 20:58:52.968,0,0,0,0,0,0,-1.49417,1.58827,-0.0212306,-1.2404,1.31853,-0.0143796
 20:58:52.977,0,0,0,0,0,0,-1.49422,1.58797,-0.0212226,-1.24164,1.31967,-0.0144044
 20:58:52.987,0,0,0,0,0,0,-1.49428,1.58766,-0.0212147,-1.24287,1.3208,-0.014429
 20:58:52.998,0,0,0,0,0,0,-1.49375,1.58736,-0.0212069,-1.24381,1.32193,-0.0144537
 20:58:53.007,0,0,0,0,0,0,-1.49438,1.58764,-0.0212142,-1.24532,1.32333,-0.0144844
 20:58:53.018,0,0,0,0,0,0,-1.49387,1.58736,-0.0212068,-1.24626,1.32445,-0.0145089
 20:58:53.027,0,0,0,0,0,0,-1.49394,1.58707,-0.0211994,-1.24747,1.32557,-0.0145333
 20:58:53.038,0,0,0,0,0,0,-1.49401,1.5868,-0.0211922,-1.24868,1.32668,-0.0145577
 20:58:53.047,0,0,0,0,0,0,-1.49408,1.58652,-0.021185,-1.24989,1.32778,-0.0145819
 20:58:53.058,0,0,0,0,0,0,-1.49471,1.58623,-0.0211774,-1.25136,1.32888,-0.0146059
 20:58:53.068,0,0,0,0,0,0,-1.49417,1.58593,-0.0211696,-1.25226,1.32995,-0.0146296
 20:58:53.077,0,0,0,0,0,0,-1.49422,1.58622,-0.0211772,-1.25344,1.33132,-0.0146596
 20:58:53.087,0,0,0,0,0,0,-1.49371,1.58595,-0.0211702,-1.25433,1.3324,-0.0146835
 20:58:53.097,0,0,0,0,0,0,-1.49436,1.58626,-0.0211782,-1.25579,1.33376,-0.0147135
 20:58:53.107,0,0,0,0,0,0,-1.49444,1.58601,-0.0211716,-1.25697,1.33484,-0.0147372
 20:58:53.117,0,0,0,0,0,0,-1.4945,1.58574,-0.0211646,-1.25813,1.3359,-0.0147607
 20:58:53.127,0,0,0,0,0,0,-1.49457,1.58605,-0.0211727,-1.25929,1.33725,-0.0147905
 20:58:53.137,0,0,0,0,0,0,-1.49521,1.58636,-0.0211808,-1.26073,1.33858,-0.0148201
 20:58:53.148,0,0,0,0,0,0,-1.49525,1.58665,-0.0211883,-1.26187,1.33991,-0.0148494
 20:58:53.157,0,0,0,0,0,0,-1.49588,1.58637,-0.0211811,-1.26329,1.34095,-0.0148724
 20:58:53.167,0,0,0,0,0,0,-1.49593,1.5861,-0.0211741,-1.26442,1.34198,-0.0148953
 20:58:53.177,0,0,0,0,0,0,-1.4954,1.58641,-0.0211821,-1.26526,1.34329,-0.0149246
 20:58:53.187,0,0,0,0,0,0,-1.49546,1.58671,-0.0211901,-1.26639,1.3446,-0.0149536
 20:58:53.198,0,0,0,0,0,0,-1.49494,1.58702,-0.0211979,-1.26722,1.3459,-0.0149826
 20:58:53.208,0,0,0,0,0,0,-1.495,1.58732,-0.0212057,-1.26833,1.3472,-0.0150115
 20:58:53.217,0,0,0,0,0,0,-1.49448,1.58646,-0.0211833,-1.26915,1.34791,-0.0150274
 20:58:53.228,0,0,0,0,0,0,-1.49454,1.58676,-0.0211913,-1.27026,1.3492,-0.0150561
 20:58:53.237,0,0,0,0,0,0,-1.4952,1.5865,-0.0211845,-1.27165,1.3502,-0.0150784
 20:58:53.248,0,0,0,0,0,0,-1.49468,1.58681,-0.0211924,-1.27245,1.35147,-0.0151069
 20:58:53.257,0,0,0,0,0,0,-1.49476,1.58712,-0.0212007,-1.27355,1.35275,-0.0151354
 20:58:53.267,0,0,0,0,0,0,-1.49483,1.58744,-0.0212089,-1.27463,1.35401,-0.0151638
 20:58:53.277,0,0,0,0,0,0,-1.49489,1.58716,-0.0212015,-1.27571,1.35498,-0.0151855
 20:58:53.287,0,0,0,0,0,0,-1.49495,1.58688,-0.0211942,-1.27678,1.35595,-0.0152071
 20:58:53.297,0,0,0,0,0,0,-1.49501,1.58718,-0.0212021,-1.27784,1.35719,-0.015235
 20:58:53.307,0,0,0,0,0,0,-1.49506,1.58688,-0.0211944,-1.2789,1.35814,-0.0152562
 20:58:53.318,0,0,0,0,0,0,-1.49452,1.58659,-0.0211867,-1.27966,1.35908,-0.0152774
 20:58:53.328,0,0,0,0,0,0,-1.494,1.58687,-0.0211942,-1.28042,1.3603,-0.0153048
 20:58:53.337,0,0,0,0,0,0,-1.49405,1.58716,-0.0212016,-1.28146,1.36151,-0.0153322
 20:58:53.348,0,0,0,0,0,0,-1.49468,1.58744,-0.021209,-1.28278,1.36272,-0.0153594
 20:58:53.357,0,0,0,0,0,0,-1.49473,1.58714,-0.0212012,-1.2838,1.36364,-0.0153801
 20:58:53.367,0,0,0,0,0,0,-1.49479,1.58686,-0.0211939,-1.28483,1.36456,-0.0154008
 20:58:53.378,0,0,0,0,0,0,-1.49485,1.58716,-0.0212017,-1.28586,1.36576,-0.015428
 20:58:53.387,0,0,0,0,0,0,-1.49491,1.58746,-0.0212095,-1.28688,1.36695,-0.015455
 20:58:53.398,0,0,0,0,0,0,-1.49497,1.58775,-0.0212172,-1.28789,1.36814,-0.0154819
 20:58:53.408,0,0,0,0,0,0,-1.49503,1.58805,-0.0212248,-1.2889,1.36933,-0.0155087
 20:58:53.417,0,0,0,0,0,0,-1.49565,1.58832,-0.0212319,-1.29018,1.3705,-0.0155352
 20:58:53.427,0,0,0,0,0,0,-1.49567,1.588,-0.0212235,-1.29117,1.37137,-0.0155549
 20:58:53.438,0,0,0,0,0,0,-1.49571,1.58827,-0.0212306,-1.29215,1.37253,-0.0155813
 20:58:53.447,0,0,0,0,0,0,-1.49574,1.58854,-0.0212376,-1.29313,1.37368,-0.0156075
 20:58:53.458,0,0,0,0,0,0,-1.49579,1.58882,-0.021245,-1.29412,1.37484,-0.0156337
 20:58:53.468,0,0,0,0,0,0,-1.49641,1.58909,-0.0212519,-1.29537,1.37598,-0.0156597
 20:58:53.478,0,0,0,0,0,0,-1.49586,1.58877,-0.0212437,-1.29605,1.37683,-0.0156791
 20:58:53.488,0,0,0,0,0,0,-1.49647,1.58846,-0.0212356,-1.2973,1.37768,-0.0156984
 20:58:53.498,0,0,0,0,0,0,-1.49594,1.58817,-0.021228,-1.29798,1.37853,-0.0157178
 20:58:53.507,0,0,0,0,0,0,-1.49657,1.58846,-0.0212355,-1.29922,1.37966,-0.0157436
 20:58:53.518,0,0,0,0,0,0,-1.49661,1.58874,-0.0212429,-1.30018,1.38079,-0.0157693
 20:58:53.527,0,0,0,0,0,0,-1.49665,1.58902,-0.0212502,-1.30112,1.38191,-0.0157949
 20:58:53.538,0,0,0,0,0,0,-1.49727,1.5893,-0.0212575,-1.30235,1.38302,-0.0158204
 20:58:53.548,0,0,0,0,0,0,-1.49731,1.58958,-0.0212647,-1.30329,1.38413,-0.0158458
 20:58:53.558,0,0,0,0,0,0,-1.49792,1.58985,-0.0212719,-1.30451,1.38524,-0.0158711
 20:58:53.568,0,0,0,0,0,0,-1.49793,1.5901,-0.0212785,-1.30543,1.38633,-0.0158961
 20:58:53.578,0,0,0,0,0,0,-1.49795,1.59036,-0.0212851,-1.30634,1.38741,-0.015921
 20:58:53.587,0,0,0,0,0,0,-1.4974,1.59004,-0.021277,-1.30698,1.38822,-0.0159395
 20:58:53.598,0,0,0,0,0,0,-1.498,1.58972,-0.0212685,-1.30817,1.38901,-0.0159576
 20:58:53.608,0,0,0,0,0,0,-1.49801,1.58998,-0.0212752,-1.30907,1.39008,-0.0159822
 20:58:53.618,0,0,0,0,0,0,-1.4986,1.59081,-0.0212969,-1.31025,1.39143,-0.0160133
 20:58:53.628,0,0,0,0,0,0,-1.49862,1.59107,-0.0213037,-1.31115,1.3925,-0.0160379
 20:58:53.638,0,0,0,0,0,0,-1.49865,1.59133,-0.0213105,-1.31204,1.39356,-0.0160624
 20:58:53.648,0,0,0,0,0,0,-1.49925,1.591,-0.021302,-1.31322,1.39433,-0.0160802
 20:58:53.658,0,0,0,0,0,0,-1.49926,1.59126,-0.0213088,-1.3141,1.39538,-0.0161045
 20:58:53.668,0,0,0,0,0,0,-1.49984,1.5915,-0.0213151,-1.31526,1.39643,-0.0161285
 20:58:53.678,0,0,0,0,0,0,-1.49985,1.59176,-0.0213218,-1.31613,1.39747,-0.0161526
 20:58:53.688,0,0,0,0,0,0,-1.49986,1.59143,-0.0213132,-1.317,1.39822,-0.01617
 20:58:53.698,0,0,0,0,0,0,-1.49987,1.59169,-0.0213199,-1.31787,1.39925,-0.0161939
 20:58:53.708,0,0,0,0,0,0,-1.49987,1.59135,-0.021311,-1.31872,1.39999,-0.016211
 20:58:53.718,0,0,0,0,0,0,-1.50045,1.5916,-0.0213177,-1.31986,1.40102,-0.0162347
 20:58:53.728,0,0,0,0,0,0,-1.50046,1.59128,-0.0213092,-1.32071,1.40175,-0.0162518
 20:58:53.738,0,0,0,0,0,0,-1.50102,1.59094,-0.0213004,-1.32183,1.40247,-0.0162685
 20:58:53.748,0,0,0,0,0,0,-1.50102,1.5912,-0.0213072,-1.32267,1.40349,-0.016292
 20:58:53.758,0,0,0,0,0,0,-1.50105,1.59149,-0.0213148,-1.32353,1.40451,-0.0163159
 20:58:53.769,0,0,0,0,0,0,-1.50047,1.59174,-0.0213214,-1.32407,1.40551,-0.0163392
 20:58:53.778,0,0,0,0,0,0,-1.50046,1.59198,-0.0213276,-1.3249,1.4065,-0.0163622
 20:58:53.788,0,0,0,0,0,0,-1.50048,1.59167,-0.0213194,-1.32573,1.40722,-0.0163789
 20:58:53.798,0,0,0,0,0,0,-1.5005,1.59194,-0.0213265,-1.32656,1.40821,-0.0164021
 20:58:53.808,0,0,0,0,0,0,-1.50052,1.59162,-0.0213183,-1.32738,1.40892,-0.0164186
 20:58:53.819,0,0,0,0,0,0,-1.50112,1.59132,-0.0213102,-1.32849,1.40962,-0.016435
 20:58:53.828,0,0,0,0,0,0,-1.50169,1.59157,-0.0213169,-1.32958,1.4106,-0.0164578
 20:58:53.838,0,0,0,0,0,0,-1.50167,1.59181,-0.0213231,-1.33038,1.41157,-0.0164803
 20:58:53.848,0,0,0,0,0,0,-1.50166,1.59264,-0.0213448,-1.33117,1.41282,-0.0165096
 20:58:53.858,0,0,0,0,0,0,-1.50164,1.59286,-0.0213508,-1.33196,1.41377,-0.0165319
 20:58:53.868,0,0,0,0,0,0,-1.50163,1.5931,-0.0213571,-1.33275,1.41473,-0.0165543
 20:58:53.879,0,0,0,0,0,0,-1.50104,1.59334,-0.0213633,-1.33325,1.41568,-0.0165767
 20:58:53.889,0,0,0,0,0,0,-1.50104,1.593,-0.0213544,-1.33404,1.41634,-0.0165922
 20:58:53.898,0,0,0,0,0,0,-1.50103,1.59265,-0.0213451,-1.33481,1.41699,-0.0166074
 20:58:53.909,0,0,0,0,0,0,-1.50101,1.5923,-0.0213359,-1.33558,1.41764,-0.0166226
 20:58:53.919,0,0,0,0,0,0,-1.50099,1.59253,-0.0213419,-1.33634,1.41857,-0.0166444
 20:58:53.928,0,0,0,0,0,0,-1.50098,1.59275,-0.0213479,-1.3371,1.41949,-0.0166661
 20:58:53.938,0,0,0,0,0,0,-1.50155,1.59242,-0.0213391,-1.33815,1.42014,-0.0166812
 20:58:53.948,0,0,0,0,0,0,-1.50155,1.59209,-0.0213304,-1.33891,1.42078,-0.0166962
 20:58:53.959,0,0,0,0,0,0,-1.50154,1.59176,-0.0213218,-1.33967,1.42141,-0.0167112
 20:58:53.968,0,0,0,0,0,0,-1.50153,1.59143,-0.0213132,-1.34042,1.42205,-0.0167261
 20:58:53.978,0,0,0,0,0,0,-1.50154,1.59055,-0.0212901,-1.34118,1.4224,-0.0167343
 20:58:53.988,0,0,0,0,0,0,-1.50099,1.59026,-0.0212827,-1.34165,1.42304,-0.0167495
 20:58:53.998,0,0,0,0,0,0,-1.50044,1.59056,-0.0212905,-1.34212,1.42397,-0.0167714
 20:58:54.008,0,0,0,0,0,0,-1.50046,1.59027,-0.0212827,-1.34287,1.4246,-0.0167862
 20:58:54.018,0,0,0,0,0,0,-1.50048,1.58997,-0.021275,-1.34361,1.42522,-0.0168009
 20:58:54.029,0,0,0,0,0,0,-1.49992,1.59026,-0.0212825,-1.34407,1.42613,-0.0168224
 20:58:54.039,0,0,0,0,0,0,-1.49937,1.59054,-0.0212899,-1.34452,1.42703,-0.0168438
 20:58:54.049,0,0,0,0,0,0,-1.4994,1.5914,-0.0213123,-1.34525,1.42822,-0.0168718
 20:58:54.058,0,0,0,0,0,0,-1.49887,1.59111,-0.0213047,-1.34571,1.42883,-0.0168863
 20:58:54.068,0,0,0,0,0,0,-1.4989,1.59138,-0.0213119,-1.34644,1.42972,-0.0169074
 20:58:54.079,0,0,0,0,0,0,-1.49894,1.59107,-0.0213039,-1.34716,1.43032,-0.0169216
 20:58:54.089,0,0,0,0,0,0,-1.49897,1.59135,-0.0213111,-1.34788,1.4312,-0.0169425
 20:58:54.099,0,0,0,0,0,0,-1.499,1.59162,-0.0213182,-1.3486,1.43208,-0.0169633
 20:58:54.109,0,0,0,0,0,0,-1.49901,1.59301,-0.0213545,-1.3493,1.43351,-0.0169971
 20:58:54.119,0,0,0,0,0,0,-1.499,1.59379,-0.021375,-1.34999,1.43464,-0.0170239
 20:58:54.130,0,0,0,0,0,0,-1.49845,1.59404,-0.0213815,-1.35041,1.4355,-0.0170443
 20:58:54.139,0,0,0,0,0,0,-1.4979,1.59369,-0.0213724,-1.35083,1.43606,-0.0170577
 20:58:54.148,0,0,0,0,0,0,-1.49679,1.59221,-0.0213336,-1.35096,1.43606,-0.0170576
 20:58:54.158,0,0,0,0,0,0,-1.49689,1.58904,-0.0212509,-1.35169,1.43522,-0.0170375
 20:58:54.169,-0.00183013,0.000610045,-9.74E-09,0,0,0,-1.49937,1.58766,-0.0212495,-1.35451,1.43556,-0.017077
 20:58:54.179,-0.00366027,0.00122009,-3.90E-08,0,0,0,-1.50061,1.58796,-0.0212922,-1.35672,1.43672,-0.0171363
 20:58:54.189,-0.00366027,0.00183013,-3.90E-08,0,0,0,-1.5,1.58883,-0.0212988,-1.35709,1.43815,-0.017156
 20:58:54.199,-0.00366025,0.00244022,-0.000610084,0,0,0,-1.50001,1.58916,-0.0219013,-1.35775,1.43933,-0.0177793
 20:58:54.208,-0.00366022,0.0030503,-0.00122013,0,0,0,-1.5,1.58948,-0.0225033,-1.35839,1.4405,-0.0184023
 20:58:54.219,-0.00305017,0.00366035,-0.00122009,0,0,0,-1.49941,1.59036,-0.0224934,-1.35844,1.44193,-0.0184066
 20:58:54.228,-0.00244013,0.00427039,-0.00122005,0,0,0,-1.49883,1.59067,-0.0224685,-1.3585,1.44308,-0.018404
 20:58:54.242,-0.00244013,0.00427039,-0.00122005,0,0,0,-1.49946,1.59039,-0.0224611,-1.35946,1.44362,-0.0184169
 20:58:54.248,-0.00183008,0.00488044,-0.00122,0,0,0,-1.49772,1.59068,-0.0224359,-1.35894,1.44475,-0.018414
 20:58:54.259,-0.00122004,0.00549048,-0.00121995,0,0,0,-1.49771,1.59153,-0.0224252,-1.35926,1.44615,-0.0184175
 20:58:54.269,-0.00122004,0.00610053,-0.00121995,0,0,0,-1.49774,1.59181,-0.0224166,-1.35992,1.44727,-0.0184297
 20:58:54.279,-0.00183008,0.00671057,-0.00122002,0,0,0,-1.49838,1.59209,-0.0224248,-1.36118,1.44838,-0.0184572
 20:58:54.289,-0.00244013,0.00732062,-0.00122009,0,0,0,-1.49844,1.59238,-0.0224335,-1.36215,1.4495,-0.0184848
 20:58:54.299,-0.00305017,0.00793066,-0.00122017,0,0,0,-1.49909,1.59324,-0.0224571,-1.36341,1.45089,-0.0185192
 20:58:54.309,-0.00427017,0.00854075,-0.00183039,0,0,0,-1.50087,1.5941,-0.0231071,-1.36553,1.45229,-0.0191787
 20:58:54.319,-0.00488022,0.00915079,-0.00183049,0,0,0,-1.50148,1.59493,-0.0231299,-1.36676,1.45366,-0.0192126
 20:58:54.329,-0.00549026,0.00976084,-0.00183059,0,0,0,-1.50267,1.59577,-0.0231529,-1.36827,1.45504,-0.0192465
 20:58:54.339,-0.00549026,0.0103709,-0.00183059,0,0,0,-1.50268,1.59604,-0.023144,-1.3689,1.45613,-0.0192581
 20:58:54.349,-0.00549026,0.011591,-0.00183059,0,0,0,-1.50269,1.59691,-0.0231348,-1.36952,1.45782,-0.0192695
 20:58:54.359,-0.00549026,0.012201,-0.00183059,0,0,0,-1.50269,1.59716,-0.0231252,-1.37013,1.45889,-0.0192806
 20:58:54.369,-0.00427017,0.0128111,-0.00183032,0,0,0,-1.50089,1.59738,-0.023081,-1.36923,1.45994,-0.0192602
 20:58:54.379,-0.00427017,0.0128111,-0.00183032,0,0,0,-1.50089,1.597,-0.023071,-1.36984,1.46038,-0.0192708
 20:58:54.389,-0.00427017,0.0128111,-0.00183032,0,0,0,-1.5003,1.59718,-0.0230758,-1.37015,1.4611,-0.0192881
 20:58:54.399,-0.00427017,0.0128111,-0.00183032,0,0,0,-1.50086,1.59736,-0.0230806,-1.37102,1.46181,-0.0193052
 20:58:54.409,-0.00427017,0.0128111,-0.00183032,0,0,0,-1.50027,1.59696,-0.0230702,-1.37133,1.46224,-0.0193154
 20:58:54.419,-0.00427017,0.0128111,-0.00183032,0,0,0,-1.50026,1.59657,-0.0230599,-1.37191,1.46266,-0.0193256
 20:58:54.430,-0.00427017,0.0128111,-0.00183032,0,0,0,-1.49968,1.59676,-0.0230648,-1.37221,1.46336,-0.0193426
 20:58:54.438,-0.00427017,0.0128111,-0.00183032,0,0,0,-1.49967,1.59694,-0.0230696,-1.3728,1.46406,-0.0193596
 20:58:54.449,-0.00427017,0.0128111,-0.00183032,0,0,0,-1.49967,1.59655,-0.0230593,-1.37338,1.46448,-0.0193695
 20:58:54.459,-0.00427017,0.0128111,-0.00183032,0,0,0,-1.4997,1.59619,-0.02305,-1.37397,1.46491,-0.0193798
 20:58:54.468,-0.00427017,0.0128111,-0.00183032,0,0,0,-1.5003,1.59584,-0.0230407,-1.37484,1.46533,-0.01939
 20:58:54.479,-0.00427017,0.0128111,-0.00183032,0,0,0,-1.49975,1.59549,-0.0230315,-1.37514,1.46575,-0.0194002
 20:58:54.489,-0.00427017,0.0128111,-0.00183032,0,0,0,-1.49979,1.59516,-0.0230228,-1.37573,1.46618,-0.0194106
 20:58:54.499,-0.00427017,0.0128111,-0.00183032,0,0,0,-1.49983,1.59483,-0.0230142,-1.37632,1.46661,-0.0194208
 20:58:54.509,-0.00427017,0.0128111,-0.00183032,0,0,0,-1.49986,1.59449,-0.0230053,-1.3769,1.46702,-0.0194309
 20:58:54.519,-0.00427017,0.0128111,-0.00183032,0,0,0,-1.49929,1.59413,-0.0229961,-1.37718,1.46743,-0.0194407
 20:58:54.529,-0.00427017,0.0128111,-0.00183032,0,0,0,-1.49931,1.59378,-0.0229869,-1.37774,1.46783,-0.0194505
 20:58:54.539,-0.00427017,0.0128111,-0.00183032,0,0,0,-1.49932,1.59402,-0.022993,-1.37831,1.46852,-0.0194671
 20:58:54.549,-0.00427017,0.0128111,-0.00183032,0,0,0,-1.49934,1.59424,-0.022999,-1.37887,1.4692,-0.0194837
 20:58:54.559,-0.00427017,0.0128111,-0.00183032,0,0,0,-1.49935,1.59389,-0.0229898,-1.37942,1.4696,-0.0194933
 20:58:54.569,-0.00427017,0.0128111,-0.00183032,0,0,0,-1.49937,1.59297,-0.0229656,-1.37998,1.46971,-0.0194959
 20:58:54.580,-0.00427017,0.0128111,-0.00183032,0,0,0,-1.49939,1.59263,-0.0229568,-1.38053,1.4701,-0.0195054
 20:58:54.589,-0.00427017,0.0128111,-0.00183032,0,0,0,-1.49939,1.59228,-0.0229476,-1.38107,1.47048,-0.0195147
 20:58:54.599,-0.00427017,0.0128111,-0.00183032,0,0,0,-1.49884,1.59197,-0.0229394,-1.38134,1.47088,-0.0195243
 20:58:54.610,-0.00427017,0.0128111,-0.00183032,0,0,0,-1.49884,1.5922,-0.0229455,-1.38187,1.47155,-0.0195404
 20:58:54.619,-0.00427017,0.0128111,-0.00183032,0,0,0,-1.49885,1.59185,-0.0229364,-1.38241,1.47192,-0.0195496
 20:58:54.630,-0.00427017,0.0128111,-0.00183032,0,0,0,-1.50002,1.59211,-0.022943,-1.38352,1.47259,-0.0195657
 20:58:54.639,-0.00427017,0.0128111,-0.00183032,0,0,0,-1.50005,1.59121,-0.0229197,-1.38406,1.47269,-0.0195681
 20:58:54.649,-0.00427017,0.0128111,-0.00183032,0,0,0,-1.50063,1.59089,-0.0229113,-1.38488,1.47307,-0.0195773
 20:58:54.659,-0.00427017,0.0128111,-0.00183032,0,0,0,-1.50062,1.59114,-0.0229177,-1.3854,1.47372,-0.0195932
 20:58:54.670,-0.00427017,0.0128111,-0.00183032,0,0,0,-1.50005,1.59082,-0.0229093,-1.38564,1.47409,-0.0196023
 20:58:54.679,-0.00427017,0.0128111,-0.00183032,0,0,0,-1.50006,1.5905,-0.022901,-1.38616,1.47447,-0.0196113
 20:58:54.689,-0.00427017,0.0128111,-0.00183032,0,0,0,-1.49947,1.59017,-0.0228924,-1.38639,1.47483,-0.0196201
 20:58:54.700,-0.00427017,0.0128111,-0.00183032,0,0,0,-1.49947,1.58985,-0.0228839,-1.3869,1.47519,-0.0196289
 20:58:54.710,-0.00427017,0.0128111,-0.00183032,0,0,0,-1.49891,1.58896,-0.0228608,-1.38713,1.47527,-0.0196308
 20:58:54.720,-0.00427017,0.0128111,-0.00183032,0,0,0,-1.49893,1.58867,-0.022853,-1.38765,1.47563,-0.0196397
 20:58:54.730,-0.00427017,0.0128111,-0.00183032,0,0,0,-1.49893,1.58836,-0.0228449,-1.38815,1.47599,-0.0196484
 20:58:54.740,-0.00427017,0.0128111,-0.00183032,0,0,0,-1.49836,1.58805,-0.0228368,-1.38837,1.47634,-0.019657
 20:58:54.750,-0.00427017,0.0128111,-0.00183032,0,0,0,-1.49895,1.58774,-0.0228289,-1.38916,1.47669,-0.0196656
 20:58:54.759,-0.00427017,0.0128111,-0.00183032,0,0,0,-1.49897,1.58746,-0.0228214,-1.38966,1.47705,-0.0196743
 20:58:54.770,-0.00427017,0.0128111,-0.00183032,0,0,0,-1.49957,1.58775,-0.0228291,-1.39045,1.47769,-0.0196899
 20:58:54.780,-0.00427017,0.0128111,-0.00183032,0,0,0,-1.49902,1.58806,-0.0228372,-1.39067,1.47834,-0.0197058
 20:58:54.789,-0.00427017,0.0128111,-0.00183032,0,0,0,-1.49905,1.58837,-0.0228451,-1.39118,1.47898,-0.0197215
 20:58:54.799,-0.00427017,0.0128111,-0.00183032,0,0,0,-1.49852,1.58811,-0.0228383,-1.3914,1.47935,-0.0197304
 20:58:54.809,-0.00427017,0.0128111,-0.00183032,0,0,0,-1.49798,1.58899,-0.0228614,-1.39162,1.48027,-0.019753
 20:58:54.820,-0.00427017,0.0128111,-0.00183032,0,0,0,-1.49802,1.58928,-0.0228691,-1.39212,1.4809,-0.0197685
 20:58:54.829,-0.00427017,0.0128111,-0.00183032,0,0,0,-1.49749,1.589,-0.0228617,-1.39233,1.48125,-0.019777
 20:58:54.839,-0.00427017,0.0128111,-0.00183032,0,0,0,-1.4981,1.58985,-0.0228841,-1.39311,1.48216,-0.0197992
 20:58:54.850,-0.00427017,0.0128111,-0.00183032,0,0,0,-1.49754,1.59011,-0.0228907,-1.3933,1.48276,-0.0198141
 20:58:54.860,-0.00427017,0.0128111,-0.00183032,0,0,0,-1.49757,1.59038,-0.0228977,-1.39379,1.48338,-0.0198291
 20:58:54.870,-0.00427017,0.0128111,-0.00183032,0,0,0,-1.49701,1.59005,-0.0228891,-1.39398,1.48369,-0.0198369
 20:58:54.880,-0.00427017,0.0128111,-0.00183032,0,0,0,-1.49704,1.58972,-0.0228807,-1.39445,1.48401,-0.0198446
 20:58:54.889,-0.00427017,0.0128111,-0.00183032,0,0,0,-1.49648,1.5894,-0.0228723,-1.39464,1.48432,-0.0198523
 20:58:54.899,-0.00427017,0.0128111,-0.00183032,0,0,0,-1.49651,1.58966,-0.022879,-1.39511,1.48492,-0.0198669
 20:58:54.909,-0.00427017,0.0128111,-0.00183032,0,0,0,-1.49654,1.58992,-0.0228857,-1.39558,1.48552,-0.0198815
 20:58:54.919,-0.00427017,0.0128111,-0.00183032,0,0,0,-1.49601,1.58961,-0.0228777,-1.39577,1.48583,-0.0198892
 20:58:54.929,-0.00427017,0.0128111,-0.00183032,0,0,0,-1.49663,1.58873,-0.0228547,-1.39653,1.48586,-0.0198898
 20:58:54.940,-0.00427017,0.0128111,-0.00183032,0,0,0,-1.4961,1.58786,-0.0228319,-1.39671,1.48588,-0.0198905
 20:58:54.950,-0.00427017,0.0128111,-0.00183032,0,0,0,-1.49673,1.58757,-0.0228244,-1.39746,1.4862,-0.0198981
 20:58:54.960,-0.00427017,0.0128111,-0.00183032,0,0,0,-1.49677,1.58729,-0.022817,-1.39793,1.48651,-0.0199057
 20:58:54.970,-0.00427017,0.0128111,-0.00183032,0,0,0,-1.49682,1.58702,-0.0228101,-1.3984,1.48683,-0.0199135
 20:58:54.980,-0.00427017,0.0128111,-0.00183032,0,0,0,-1.49688,1.58676,-0.0228032,-1.39886,1.48714,-0.0199213
 20:58:54.990,-0.00427017,0.0128111,-0.00183032,0,0,0,-1.49636,1.5865,-0.0227964,-1.39904,1.48746,-0.019929
 20:58:55.000,-0.00427017,0.0128111,-0.00183032,0,0,0,-1.49698,1.58623,-0.0227893,-1.39979,1.48776,-0.0199364
 20:58:55.009,-0.00427017,0.0128111,-0.00183032,0,0,0,-1.49641,1.58592,-0.0227814,-1.39994,1.48805,-0.0199435
 20:58:55.019,-0.00427017,0.0128111,-0.00183032,0,0,0,-1.49644,1.58564,-0.022774,-1.40038,1.48834,-0.0199507
 20:58:55.030,-0.00427017,0.0128111,-0.00183032,0,0,0,-1.49647,1.58536,-0.0227667,-1.40083,1.48863,-0.0199579
 20:58:55.040,-0.00427017,0.0128111,-0.00183032,0,0,0,-1.49593,1.58508,-0.0227595,-1.40098,1.48892,-0.0199651
 20:58:55.050,-0.00427017,0.0128111,-0.00183032,0,0,0,-1.49596,1.58481,-0.0227523,-1.40142,1.48921,-0.0199722
 20:58:55.060,-0.00427017,0.0128111,-0.00183032,0,0,0,-1.49543,1.58455,-0.0227456,-1.40158,1.48951,-0.0199795
 20:58:55.070,-0.00427017,0.0128111,-0.00183032,0,0,0,-1.49549,1.58372,-0.0227239,-1.40202,1.48952,-0.0199797
 20:58:55.080,-0.00427017,0.0128111,-0.00183032,0,0,0,-1.49556,1.58349,-0.022718,-1.40247,1.48982,-0.0199871
 20:58:55.089,-0.00427017,0.0128111,-0.00183032,0,0,0,-1.49561,1.58383,-0.0227267,-1.40291,1.4904,-0.0200014
 20:58:55.099,-0.00427017,0.0128111,-0.00183032,0,0,0,-1.49566,1.58416,-0.0227353,-1.40335,1.49097,-0.0200156
 20:58:55.109,-0.00427017,0.0128111,-0.00183032,0,0,0,-1.49572,1.58391,-0.0227288,-1.40379,1.49126,-0.0200226
 20:58:55.119,-0.00427017,0.0128111,-0.00183032,0,0,0,-1.49575,1.58422,-0.022737,-1.40421,1.49182,-0.0200365
 20:58:55.130,-0.00427017,0.0128111,-0.00183032,0,0,0,-1.49579,1.58453,-0.0227451,-1.40463,1.49238,-0.0200503
 20:58:55.139,-0.00427017,0.0128111,-0.00183032,0,0,0,-1.49583,1.58484,-0.0227531,-1.40505,1.49294,-0.0200641
 20:58:55.150,-0.00427017,0.0128111,-0.00183032,0,0,0,-1.49528,1.58457,-0.022746,-1.40519,1.49321,-0.0200708
 20:58:55.160,-0.00427017,0.0128111,-0.00183032,0,0,0,-1.49533,1.58487,-0.022754,-1.40561,1.49376,-0.0200845
 20:58:55.170,-0.00427017,0.0128111,-0.00183032,0,0,0,-1.49537,1.5846,-0.0227469,-1.40602,1.49403,-0.020091
 20:58:55.180,-0.00427017,0.0128111,-0.00183032,0,0,0,-1.49541,1.58433,-0.0227399,-1.40644,1.49429,-0.0200975
 20:58:55.189,-0.00427017,0.0128111,-0.00183032,0,0,0,-1.49545,1.58349,-0.0227179,-1.40685,1.49427,-0.0200969
 20:58:55.200,-0.00427017,0.0128111,-0.00183032,0,0,0,-1.49552,1.58326,-0.0227119,-1.40728,1.49455,-0.0201038
 20:58:55.210,-0.00427017,0.0128111,-0.00183032,0,0,0,-1.49554,1.58414,-0.0227349,-1.40768,1.49537,-0.0201242
 20:58:55.220,-0.00427017,0.0128111,-0.00183032,0,0,0,-1.49558,1.58445,-0.022743,-1.40808,1.49592,-0.0201376
 20:58:55.230,-0.00427017,0.0128111,-0.00183032,0,0,0,-1.49624,1.58423,-0.0227373,-1.40879,1.49619,-0.0201444
 20:58:55.240,-0.00427017,0.0128111,-0.00183032,0,0,0,-1.4957,1.58397,-0.0227303,-1.40891,1.49645,-0.0201507
 20:58:55.250,-0.00427017,0.0128111,-0.00183032,0,0,0,-1.49633,1.58256,-0.0226937,-1.4096,1.49614,-0.0201429
 20:58:55.260,-0.00427017,0.0128111,-0.00183032,0,0,0,-1.49637,1.58175,-0.0226725,-1.41001,1.49611,-0.0201423
 20:58:55.270,-0.00427017,0.0128111,-0.00183032,0,0,0,-1.49699,1.58153,-0.0226666,-1.4107,1.49638,-0.0201488
 20:58:55.280,-0.00427017,0.0128111,-0.00183032,0,0,0,-1.49705,1.58074,-0.0226461,-1.4111,1.49636,-0.0201483
 20:58:55.290,-0.00427017,0.0128111,-0.00183032,0,0,0,-1.49534,1.58051,-0.0226401,-1.41064,1.49661,-0.0201546
 20:58:55.300,-0.00427017,0.0128111,-0.00183032,0,0,0,-1.49765,1.58198,-0.0226784,-1.41215,1.4977,-0.0201816
 20:58:55.310,-0.00427017,0.0128111,-0.00183032,0,0,0,-1.49718,1.57951,-0.0226138,-1.41229,1.49685,-0.0201603
 20:58:55.320,-0.00427017,0.0128111,-0.00183032,0,0,0,-1.49673,1.57707,-0.0225503,-1.41244,1.496,-0.0201393
 20:58:55.330,-0.00427017,0.0128111,-0.00183032,0,0,0,-1.49668,1.58024,-0.0226331,-1.41279,1.49792,-0.020187
 20:58:55.339,-0.00427017,0.0128111,-0.00183032,0,0,0,-1.49494,1.58112,-0.022656,-1.41229,1.49871,-0.0202067
 20:58:55.350,-0.00427017,0.0128111,-0.00183032,0,0,0,-1.49624,1.57924,-0.0226069,-1.41329,1.49814,-0.0201923
 20:58:55.360,-0.00427017,0.0128111,-0.00183032,0,0,0,-1.49516,1.57791,-0.0225723,-1.41312,1.49783,-0.0201848
 20:58:55.370,-0.00427017,0.0128111,-0.00183032,0,0,0,-1.49576,1.57885,-0.0225966,-1.41378,1.49864,-0.0202048
 20:58:55.380,-0.00427017,0.0128111,-0.00183032,0,0,0,-1.49464,1.57979,-0.0226212,-1.41358,1.49945,-0.020225
 20:58:55.390,-0.00427017,0.0128111,-0.00183032,0,0,0,-1.49583,1.58013,-0.02263,-1.41452,1.49996,-0.0202378
 20:58:55.401,-0.00427017,0.0128111,-0.00183032,0,0,0,-1.49535,1.57823,-0.0225805,-1.41464,1.49937,-0.020223
 20:58:55.411,-0.00427017,0.0128111,-0.00183032,0,0,0,-1.49481,1.57802,-0.0225751,-1.41473,1.49961,-0.0202289
 20:58:55.421,-0.00427017,0.0128111,-0.00183032,0,0,0,-1.49481,1.58007,-0.0226285,-1.41507,1.50096,-0.0202625
 20:58:55.430,-0.00427017,0.0128111,-0.00183032,0,0,0,-1.49429,1.57986,-0.0226231,-1.41517,1.50119,-0.0202685
 20:58:55.441,-0.00427017,0.0128111,-0.00183032,0,0,0,-1.49498,1.57797,-0.0225736,-1.41585,1.5006,-0.0202534
 20:58:55.451,-0.00427017,0.0128111,-0.00183032,0,0,0,-1.49448,1.57664,-0.022539,-1.41595,1.50027,-0.0202453
 20:58:55.460,-0.00427017,0.0128111,-0.00183032,0,0,0,-1.49508,1.57757,-0.0225632,-1.41658,1.50106,-0.0202649
 20:58:55.470,-0.00427017,0.0128111,-0.00183032,0,0,0,-1.49509,1.57849,-0.0225872,-1.41693,1.50184,-0.0202844
 20:58:55.480,-0.00427017,0.0128111,-0.00183032,0,0,0,-1.49572,1.57772,-0.0225671,-1.41758,1.50179,-0.0202831
 20:58:55.490,-0.00427017,0.0128111,-0.00183032,0,0,0,-1.49581,1.57583,-0.0225178,-1.41796,1.50118,-0.0202678
 20:58:55.500,-0.00427017,0.0128111,-0.00183032,0,0,0,-1.49528,1.57682,-0.0225436,-1.41804,1.50199,-0.020288
 20:58:55.510,-0.00427017,0.0128111,-0.00183032,0,0,0,-1.49472,1.57717,-0.0225528,-1.41809,1.50248,-0.0203003
 20:58:55.520,-0.00427017,0.0128111,-0.00183032,0,0,0,-1.4959,1.57638,-0.0225323,-1.41901,1.50241,-0.0202985
 20:58:55.530,-0.00427017,0.0128111,-0.00183032,0,0,0,-1.49482,1.57566,-0.0225135,-1.41881,1.50237,-0.0202975
 20:58:55.540,-0.00427017,0.0128111,-0.00183032,0,0,0,-1.49605,1.57609,-0.0225247,-1.41975,1.50289,-0.0203105
 20:58:55.550,-0.00427017,0.0128111,-0.00183032,0,0,0,-1.49379,1.5765,-0.0225353,-1.41896,1.50341,-0.0203234
 20:58:55.560,-0.00427017,0.0128111,-0.00183032,0,0,0,-1.495,1.57746,-0.0225605,-1.41988,1.50419,-0.020343
 20:58:55.571,-0.00427017,0.0128111,-0.00183032,0,0,0,-1.49451,1.57616,-0.0225264,-1.41996,1.50386,-0.0203347
 20:58:55.581,-0.00427017,0.0128111,-0.00183032,0,0,0,-1.49516,1.57599,-0.0225219,-1.4206,1.50408,-0.0203402
 20:58:55.590,-0.00427017,0.0128111,-0.00183032,0,0,0,-1.49461,1.57636,-0.0225318,-1.42065,1.50457,-0.0203525
 20:58:55.600,-0.00427017,0.0128111,-0.00183032,0,0,0,-1.49464,1.57674,-0.0225415,-1.42098,1.50506,-0.0203647
 20:58:55.610,-0.00427017,0.0128111,-0.00183032,0,0,0,-1.49528,1.57598,-0.0225219,-1.42161,1.50499,-0.0203629
 20:58:55.620,-0.00427017,0.0128111,-0.00183032,0,0,0,-1.4942,1.57468,-0.0224878,-1.4214,1.50465,-0.0203543
 20:58:55.630,-0.00427017,0.0128111,-0.00183032,0,0,0,-1.49484,1.57452,-0.0224837,-1.42203,1.50487,-0.0203597
 20:58:55.640,-0.00427017,0.0128111,-0.00183032,0,0,0,-1.49373,1.57493,-0.0224943,-1.42179,1.50536,-0.0203721
 20:58:55.650,-0.00427017,0.0128111,-0.00183032,0,0,0,-1.49438,1.57477,-0.0224902,-1.42242,1.50558,-0.0203775
 20:58:55.661,-0.00427017,0.0128111,-0.00183032,0,0,0,-1.4939,1.57349,-0.0224568,-1.42249,1.50524,-0.0203689
 20:58:55.670,-0.00427017,0.0128111,-0.00183032,0,0,0,-1.49455,1.57335,-0.0224531,-1.42311,1.50545,-0.0203743
 20:58:55.680,-0.00427017,0.0128111,-0.00183032,0,0,0,-1.49403,1.57378,-0.0224645,-1.42317,1.50595,-0.0203868
 20:58:55.691,-0.00427017,0.0128111,-0.00183032,0,0,0,-1.49412,1.57423,-0.0224761,-1.42351,1.50646,-0.0203995
 20:58:55.700,-0.00427017,0.0128111,-0.00183032,0,0,0,-1.49419,1.57408,-0.0224722,-1.42384,1.50667,-0.0204047
 20:58:55.710,-0.00427017,0.0128111,-0.00183032,0,0,0,-1.49369,1.57337,-0.0224537,-1.4239,1.5066,-0.020403
 20:58:55.720,-0.00427017,0.0128111,-0.00183032,0,0,0,-1.49378,1.57324,-0.0224504,-1.42424,1.50682,-0.0204084
 20:58:55.730,-0.00427017,0.0128111,-0.00183032,0,0,0,-1.49327,1.5731,-0.0224467,-1.42429,1.50703,-0.0204137
 20:58:55.740,-0.00427017,0.0128111,-0.00183032,0,0,0,-1.49339,1.57301,-0.0224443,-1.42464,1.50726,-0.0204194
 20:58:55.750,-0.00427017,0.0128111,-0.00183032,0,0,0,-1.49352,1.57234,-0.0224269,-1.42499,1.5072,-0.020418
 20:58:55.760,-0.00427017,0.0128111,-0.00183032,0,0,0,-1.4936,1.5728,-0.0224389,-1.42533,1.5077,-0.0204305
 20:58:55.771,-0.00427017,0.0128111,-0.00183032,0,0,0,-1.49369,1.57326,-0.0224509,-1.42566,1.5082,-0.020443
 20:58:55.781,-0.00427017,0.0128111,-0.00183032,0,0,0,-1.49089,1.57371,-0.0224626,-1.42456,1.50869,-0.0204555
 20:58:55.791,-0.00427017,0.0128111,-0.00183032,0,0,0,-1.49216,1.57358,-0.0224593,-1.42547,1.5089,-0.0204606
 20:58:55.800,-0.00427017,0.0128111,-0.00183032,0,0,0,-1.49344,1.57174,-0.0224111,-1.42638,1.50825,-0.0204443
 20:58:55.811,-0.00427017,0.0128111,-0.00183032,0,0,0,-1.49238,1.57222,-0.0224238,-1.42615,1.50876,-0.020457
 20:58:55.820,-0.00427017,0.0128111,-0.00183032,0,0,0,-1.49423,1.57386,-0.0224664,-1.42734,1.50983,-0.0204838
 20:58:55.830,-0.00427017,0.0128111,-0.00183032,0,0,0,-1.49085,1.57199,-0.0224178,-1.42595,1.50917,-0.0204675
 20:58:55.841,-0.00427017,0.0128111,-0.00183032,0,0,0,-1.49324,1.57185,-0.0224141,-1.42741,1.50936,-0.0204721
 20:58:55.851,-0.00427017,0.0128111,-0.00183032,0,0,0,-1.49277,1.57291,-0.0224418,-1.42745,1.51014,-0.0204918
 20:58:55.861,-0.00427017,0.0128111,-0.00183032,0,0,0,-1.49172,1.57338,-0.0224541,-1.42721,1.51064,-0.0205042
 20:58:55.871,-0.00427017,0.0128111,-0.00183032,0,0,0,-1.49356,1.57268,-0.0224357,-1.42839,1.51055,-0.0205019
 20:58:55.881,-0.00427017,0.0128111,-0.00183032,0,0,0,-1.49192,1.57256,-0.0224326,-1.42785,1.51075,-0.0205069
 20:58:55.891,-0.00427017,0.0128111,-0.00183032,0,0,0,-1.49376,1.5736,-0.0224596,-1.42903,1.51151,-0.0205261
 20:58:55.901,-0.00427017,0.0128111,-0.00183032,0,0,0,-1.49153,1.57347,-0.0224563,-1.4282,1.51171,-0.020531
 20:58:55.911,-0.00427017,0.0128111,-0.00183032,0,0,0,-1.49332,1.57329,-0.0224518,-1.42935,1.51188,-0.0205352
 20:58:55.921,-0.00427017,0.0128111,-0.00183032,0,0,0,-1.49227,1.57203,-0.0224188,-1.4291,1.5115,-0.0205258
 20:58:55.931,-0.00427017,0.0128111,-0.00183032,0,0,0,-1.49294,1.57248,-0.0224305,-1.42969,1.51197,-0.0205376
 20:58:55.941,-0.00427017,0.0128111,-0.00183032,0,0,0,-1.49243,1.5729,-0.0224416,-1.4297,1.51243,-0.0205492
 20:58:55.951,-0.00427017,0.0128111,-0.00183032,0,0,0,-1.49193,1.57277,-0.0224381,-1.42972,1.51261,-0.0205537
 20:58:55.961,-0.00427017,0.0128111,-0.00183032,0,0,0,-1.49377,1.57265,-0.0224349,-1.43089,1.5128,-0.0205583
 20:58:55.971,-0.00427017,0.0128111,-0.00183032,0,0,0,-1.49097,1.57137,-0.0224017,-1.42977,1.51241,-0.0205487
 20:58:55.982,-0.00427017,0.0128111,-0.00183032,0,0,0,-1.49336,1.57239,-0.0224282,-1.4312,1.51316,-0.0205673
 20:58:55.991,-0.00427017,0.0128111,-0.00183032,0,0,0,-1.49111,1.57166,-0.0224093,-1.43035,1.51304,-0.0205645
 20:58:56.001,-0.00427017,0.0128111,-0.00183032,0,0,0,-1.49291,1.57208,-0.0224202,-1.43149,1.51349,-0.0205756
 20:58:56.011,-0.00427017,0.0128111,-0.00183032,0,0,0,-1.49185,1.57081,-0.0223872,-1.43122,1.5131,-0.0205659
 20:58:56.020,-0.00427017,0.0128111,-0.00183032,0,0,0,-1.4925,1.57068,-0.0223838,-1.4318,1.51327,-0.0205701
 20:58:56.031,-0.00427017,0.0128111,-0.00183032,0,0,0,-1.49258,1.57115,-0.0223958,-1.43209,1.51373,-0.0205817
 20:58:56.041,-0.00427017,0.0128111,-0.00183032,0,0,0,-1.49267,1.57103,-0.0223927,-1.43238,1.5139,-0.0205861
 20:58:56.051,-0.00427017,0.0128111,-0.00183032,0,0,0,-1.49333,1.57033,-0.0223746,-1.43296,1.51379,-0.0205832
 20:58:56.061,-0.00427017,0.0128111,-0.00183032,0,0,0,-1.49284,1.57023,-0.0223721,-1.43297,1.51397,-0.0205878
 20:58:56.071,-0.00427017,0.0128111,-0.00183032,0,0,0,-1.4935,1.57128,-0.0223993,-1.43354,1.51472,-0.0206065
 20:58:56.081,-0.00427017,0.0128111,-0.00183032,0,0,0,-1.49242,1.57173,-0.0224112,-1.43326,1.51517,-0.020618
 20:58:56.091,-0.00427017,0.0128111,-0.00183032,0,0,0,-1.49306,1.57159,-0.0224075,-1.43382,1.51533,-0.020622
 20:58:56.101,-0.00427017,0.0128111,-0.00183032,0,0,0,-1.492,1.57091,-0.0223896,-1.43354,1.51522,-0.0206192
 20:58:56.111,-0.00427017,0.0128111,-0.00183032,0,0,0,-1.49209,1.57079,-0.0223866,-1.43383,1.51538,-0.0206233
 20:58:56.122,-0.00427017,0.0128111,-0.00183032,0,0,0,-1.49217,1.57066,-0.0223831,-1.4341,1.51554,-0.0206273
 20:58:56.131,-0.00427017,0.0128111,-0.00183032,0,0,0,-1.49224,1.5711,-0.0223948,-1.43438,1.51598,-0.0206385
 20:58:56.141,-0.00427017,0.0128111,-0.00183032,0,0,0,-1.4929,1.57099,-0.0223917,-1.43494,1.51615,-0.0206425
 20:58:56.151,-0.00427017,0.0128111,-0.00183032,0,0,0,-1.49297,1.57085,-0.0223882,-1.43521,1.5163,-0.0206464
 20:58:56.162,-0.00427017,0.0128111,-0.00183032,0,0,0,-1.49361,1.5713,-0.0223998,-1.43577,1.51674,-0.0206574
 20:58:56.171,-0.00427017,0.0128111,-0.00183032,0,0,0,-1.4931,1.57118,-0.0223966,-1.43575,1.5169,-0.0206615
 20:58:56.180,-0.00427017,0.0128111,-0.00183032,0,0,0,-1.49377,1.57107,-0.0223939,-1.43632,1.51706,-0.0206656
 20:58:56.191,-0.00427017,0.0128111,-0.00183032,0,0,0,-1.49327,1.57038,-0.0223758,-1.43631,1.51694,-0.0206624
 20:58:56.201,-0.00427017,0.0128111,-0.00183032,0,0,0,-1.49333,1.57082,-0.0223875,-1.43657,1.51737,-0.0206734
 20:58:56.212,-0.00427017,0.0128111,-0.00183032,0,0,0,-1.49284,1.57072,-0.0223848,-1.43656,1.51753,-0.0206775
 20:58:56.221,-0.00427017,0.0128111,-0.00183032,0,0,0,-1.49235,1.57119,-0.0223969,-1.43655,1.51797,-0.0206886
 20:58:56.231,-0.00427017,0.0128111,-0.00183032,0,0,0,-1.49187,1.5705,-0.0223791,-1.43654,1.51785,-0.0206855
 20:58:56.241,-0.00427017,0.0128111,-0.00183032,0,0,0,-1.49137,1.57037,-0.0223757,-1.43652,1.518,-0.0206892
 20:58:56.251,-0.00427017,0.0128111,-0.00183032,0,0,0,-1.49145,1.57082,-0.0223874,-1.43678,1.51842,-0.0207
 20:58:56.261,-0.00427017,0.0128111,-0.00183032,0,0,0,-1.49095,1.57069,-0.022384,-1.43676,1.51857,-0.0207037
 20:58:56.271,-0.00427017,0.0128111,-0.00183032,0,0,0,-1.49105,1.57,-0.022366,-1.43703,1.51843,-0.0207002
 20:58:56.282,-0.00427017,0.0128111,-0.00183032,0,0,0,-1.49059,1.56933,-0.0223486,-1.43702,1.51831,-0.020697
 20:58:56.291,-0.00427017,0.0128111,-0.00183032,0,0,0,-1.49068,1.56921,-0.0223455,-1.43728,1.51845,-0.0207006
 20:58:56.302,-0.00427017,0.0128111,-0.00183032,0,0,0,-1.49076,1.56852,-0.0223275,-1.43753,1.51831,-0.020697
 20:58:56.311,-0.00427017,0.0128111,-0.00183032,0,0,0,-1.49087,1.56843,-0.0223251,-1.4378,1.51846,-0.0207008
 20:58:56.321,-0.00427017,0.0128111,-0.00183032,0,0,0,-1.49098,1.56835,-0.0223231,-1.43807,1.51862,-0.0207047
 20:58:56.331,-0.00427017,0.0128111,-0.00183032,0,0,0,-1.49107,1.56824,-0.0223203,-1.43833,1.51876,-0.0207083
 20:58:56.342,-0.00427017,0.0128111,-0.00183032,0,0,0,-1.49116,1.56815,-0.0223179,-1.43859,1.51891,-0.0207121
 20:58:56.351,-0.00427017,0.0128111,-0.00183032,0,0,0,-1.49126,1.56806,-0.0223156,-1.43885,1.51905,-0.0207158
 20:58:56.362,-0.00427017,0.0128111,-0.00183032,0,0,0,-1.49136,1.56797,-0.0223133,-1.43911,1.5192,-0.0207195
 20:58:56.371,-0.00427017,0.0128111,-0.00183032,0,0,0,-1.49088,1.56789,-0.022311,-1.43908,1.51935,-0.0207232
 20:58:56.381,-0.00427017,0.0128111,-0.00183032,0,0,0,-1.49098,1.56838,-0.0223238,-1.43933,1.51978,-0.0207342
 20:58:56.391,-0.00427017,0.0128111,-0.00183032,0,0,0,-1.49106,1.56827,-0.022321,-1.43958,1.51992,-0.0207376
 20:58:56.401,-0.00427017,0.0128111,-0.00183032,0,0,0,-1.49114,1.56759,-0.0223032,-1.43983,1.51977,-0.0207338
 20:58:56.411,-0.00427017,0.0128111,-0.00183032,0,0,0,-1.49123,1.56691,-0.0222856,-1.44008,1.51962,-0.02073
 20:58:56.421,-0.00427017,0.0128111,-0.00183032,0,0,0,-1.49131,1.56682,-0.0222832,-1.44032,1.51975,-0.0207334
 20:58:56.431,-0.00427017,0.0128111,-0.00183032,0,0,0,-1.49139,1.56615,-0.0222658,-1.44057,1.51961,-0.0207296
 20:58:56.441,-0.00427017,0.0128111,-0.00183032,0,0,0,-1.49091,1.5655,-0.0222489,-1.44053,1.51946,-0.020726
 20:58:56.451,-0.00427017,0.0128111,-0.00183032,0,0,0,-1.49101,1.56544,-0.0222473,-1.44078,1.51961,-0.0207297
 20:58:56.462,-0.00427017,0.0128111,-0.00183032,0,0,0,-1.49109,1.56536,-0.0222453,-1.44102,1.51975,-0.0207332
 20:58:56.472,-0.00427017,0.0128111,-0.00183032,0,0,0,-1.4906,1.56528,-0.0222433,-1.44098,1.51988,-0.0207366
 20:58:56.481,-0.00427017,0.0128111,-0.00183032,0,0,0,-1.49069,1.56521,-0.0222413,-1.44122,1.52002,-0.0207401
 20:58:56.492,-0.00427017,0.0128111,-0.00183032,0,0,0,-1.4902,1.56513,-0.0222393,-1.44117,1.52015,-0.0207435
 20:58:56.502,-0.00427017,0.0128111,-0.00183032,0,0,0,-1.49031,1.56507,-0.0222377,-1.44142,1.5203,-0.0207471
 20:58:56.511,-0.00427017,0.0128111,-0.00183032,0,0,0,-1.4904,1.56557,-0.0222508,-1.44166,1.52071,-0.0207577
 20:58:56.521,-0.00427017,0.0128111,-0.00183032,0,0,0,-1.49049,1.56607,-0.0222637,-1.44189,1.52113,-0.0207682
 20:58:56.531,-0.00427017,0.0128111,-0.00183032,0,0,0,-1.49059,1.566,-0.0222619,-1.44214,1.52127,-0.0207717
 20:58:56.542,-0.00427017,0.0128111,-0.00183032,0,0,0,-1.49069,1.56593,-0.0222602,-1.44238,1.5214,-0.0207752
 20:58:56.551,-0.00427017,0.0128111,-0.00183032,0,0,0,-1.49022,1.56529,-0.0222434,-1.44234,1.52125,-0.0207714
 20:58:56.562,-0.00427017,0.0128111,-0.00183032,0,0,0,-1.49089,1.56521,-0.0222414,-1.44285,1.52138,-0.0207746
 20:58:56.572,-0.00427017,0.0128111,-0.00183032,0,0,0,-1.49099,1.56515,-0.0222399,-1.44309,1.52152,-0.020778
 20:58:56.581,-0.00427017,0.0128111,-0.00183032,0,0,0,-1.49109,1.56509,-0.0222383,-1.44333,1.52165,-0.0207814
 20:58:56.592,-0.00427017,0.0128111,-0.00183032,0,0,0,-1.49175,1.56502,-0.0222364,-1.44384,1.52178,-0.0207846
 20:58:56.602,-0.00427017,0.0128111,-0.00183032,0,0,0,-1.49241,1.56554,-0.0222499,-1.44436,1.5222,-0.0207952
 20:58:56.612,-0.00427017,0.0128111,-0.00183032,0,0,0,-1.4925,1.56547,-0.0222482,-1.44459,1.52233,-0.0207986
 20:58:56.621,-0.00427017,0.0128111,-0.00183032,0,0,0,-1.4926,1.56543,-0.022247,-1.44483,1.52247,-0.0208021
 20:58:56.631,-0.00427017,0.0128111,-0.00183032,0,0,0,-1.4927,1.56538,-0.0222458,-1.44507,1.52261,-0.0208056
 20:58:56.642,-0.00427017,0.0128111,-0.00183032,0,0,0,-1.49222,1.56533,-0.0222446,-1.44502,1.52275,-0.0208091
 20:58:56.652,-0.00427017,0.0128111,-0.00183032,0,0,0,-1.49288,1.56527,-0.022243,-1.44553,1.52287,-0.0208123
 20:58:56.662,-0.00427017,0.0128111,-0.00183032,0,0,0,-1.49238,1.56521,-0.0222414,-1.44547,1.523,-0.0208156
 20:58:56.671,-0.00427017,0.0128111,-0.00183032,0,0,0,-1.49188,1.56456,-0.0222244,-1.4454,1.52284,-0.0208114
 20:58:56.681,-0.00427017,0.0128111,-0.00183032,0,0,0,-1.49139,1.5645,-0.022223,-1.44534,1.52297,-0.0208147
 20:58:56.692,-0.00427017,0.0128111,-0.00183032,0,0,0,-1.49091,1.56445,-0.0222216,-1.44528,1.52309,-0.0208179
 20:58:56.702,-0.00427017,0.0128111,-0.00183032,0,0,0,-1.49157,1.56438,-0.0222198,-1.44579,1.52321,-0.0208209
 20:58:56.711,-0.00427017,0.0128111,-0.00183032,0,0,0,-1.49109,1.56491,-0.0222335,-1.44573,1.52363,-0.0208315
 20:58:56.721,-0.00427017,0.0128111,-0.00183032,0,0,0,-1.49117,1.56311,-0.0221866,-1.44594,1.52289,-0.0208126
 20:58:56.731,-0.00427017,0.0128111,-0.00183032,0,0,0,-1.49124,1.56246,-0.0221698,-1.44615,1.52272,-0.0208082
 20:58:56.742,-0.00427017,0.0128111,-0.00183032,0,0,0,-1.49134,1.56416,-0.022214,-1.44637,1.5237,-0.0208333
 20:58:56.752,-0.00427017,0.0128111,-0.00183032,0,0,0,-1.49085,1.56353,-0.0221977,-1.44631,1.52354,-0.0208292
 20:58:56.762,-0.00427017,0.0128111,-0.00183032,0,0,0,-1.49035,1.56288,-0.0221807,-1.44623,1.52337,-0.0208248
 20:58:56.772,-0.00427017,0.0128111,-0.00183032,0,0,0,-1.49044,1.5634,-0.0221944,-1.44645,1.52377,-0.020835
 20:58:56.782,-0.00427017,0.0128111,-0.00183032,0,0,0,-1.48942,1.56339,-0.0221941,-1.44611,1.52391,-0.0208386
 20:58:56.792,-0.00427017,0.0128111,-0.00183032,0,0,0,-1.49013,1.56337,-0.0221934,-1.44663,1.52404,-0.0208419
 20:58:56.802,-0.00427017,0.0128111,-0.00183032,0,0,0,-1.48966,1.5639,-0.0222073,-1.44656,1.52445,-0.0208523
 20:58:56.812,-0.00427017,0.0128111,-0.00183032,0,0,0,-1.48977,1.56386,-0.0222061,-1.44678,1.52457,-0.0208554
 20:58:56.821,-0.00427017,0.0128111,-0.00183032,0,0,0,-1.48932,1.56382,-0.0222053,-1.44672,1.52469,-0.0208586
 20:58:56.832,-0.00427017,0.0128111,-0.00183032,0,0,0,-1.48884,1.56434,-0.0222187,-1.44665,1.52509,-0.0208687
 20:58:56.842,-0.00427017,0.0128111,-0.00183032,0,0,0,-1.48954,1.56486,-0.0222323,-1.44715,1.52549,-0.020879
 20:58:56.852,-0.00427017,0.0128111,-0.00183032,0,0,0,-1.4885,1.56539,-0.0222459,-1.4468,1.52589,-0.0208892
 20:58:56.862,-0.00427017,0.0128111,-0.00183032,0,0,0,-1.48861,1.56531,-0.0222438,-1.44701,1.526,-0.0208919
 20:58:56.872,-0.00427017,0.0128111,-0.00183032,0,0,0,-1.48814,1.56465,-0.0222269,-1.44694,1.52582,-0.0208873
 20:58:56.882,-0.00427017,0.0128111,-0.00183032,0,0,0,-1.48881,1.56457,-0.0222246,-1.44743,1.52592,-0.0208898
 20:58:56.892,-0.00427017,0.0128111,-0.00183032,0,0,0,-1.48836,1.56451,-0.0222232,-1.44736,1.52603,-0.0208927
 20:58:56.902,-0.00427017,0.0128111,-0.00183032,0,0,0,-1.48848,1.56504,-0.0222369,-1.44757,1.52643,-0.0209028
 20:58:56.912,-0.00427017,0.0128111,-0.00183032,0,0,0,-1.48804,1.56557,-0.0222507,-1.44751,1.52683,-0.0209131
 20:58:56.922,-0.00427017,0.0128111,-0.00183032,0,0,0,-1.48761,1.56553,-0.0222495,-1.44745,1.52695,-0.0209161
 20:58:56.932,-0.00427017,0.0128111,-0.00183032,0,0,0,-1.48776,1.5649,-0.0222333,-1.44767,1.52678,-0.0209117
 20:58:56.942,-0.00427017,0.0128111,-0.00183032,0,0,0,-1.48791,1.56486,-0.0222322,-1.44789,1.5269,-0.0209147
 20:58:56.952,-0.00427017,0.0128111,-0.00183032,0,0,0,-1.48807,1.56483,-0.0222315,-1.44812,1.52702,-0.0209178
 20:58:56.962,-0.00427017,0.0128111,-0.00183032,0,0,0,-1.48705,1.56479,-0.0222305,-1.44777,1.52714,-0.0209208
 20:58:56.972,-0.00427017,0.0128111,-0.00183032,0,0,0,-1.48719,1.56474,-0.022229,-1.44798,1.52724,-0.0209236
 20:58:56.982,-0.00427017,0.0128111,-0.00183032,0,0,0,-1.48734,1.5647,-0.022228,-1.4482,1.52736,-0.0209265
 20:58:56.992,-0.00427017,0.0128111,-0.00183032,0,0,0,-1.4875,1.56466,-0.022227,-1.44842,1.52747,-0.0209293
 20:58:57.002,-0.00427017,0.0128111,-0.00183032,0,0,0,-1.48765,1.56404,-0.022211,-1.44864,1.5273,-0.0209249
 20:58:57.012,-0.00427017,0.0128111,-0.00183032,0,0,0,-1.48722,1.56343,-0.0221951,-1.44857,1.52713,-0.0209206
 20:58:57.022,-0.00427017,0.0128111,-0.00183032,0,0,0,-1.48737,1.5634,-0.0221944,-1.44879,1.52724,-0.0209235
 20:58:57.032,-0.00427017,0.0128111,-0.00183032,0,0,0,-1.48636,1.5628,-0.0221787,-1.44844,1.52707,-0.0209191
 20:58:57.042,-0.00427017,0.0128111,-0.00183032,0,0,0,-1.48652,1.56278,-0.0221782,-1.44866,1.52719,-0.0209221
 20:58:57.052,-0.00427017,0.0128111,-0.00183032,0,0,0,-1.48667,1.56274,-0.0221773,-1.44886,1.52729,-0.0209248
 20:58:57.062,-0.00427017,0.0128111,-0.00183032,0,0,0,-1.48623,1.56271,-0.0221764,-1.44879,1.5274,-0.0209275
 20:58:57.072,-0.00427017,0.0128111,-0.00183032,0,0,0,-1.48638,1.5621,-0.0221605,-1.449,1.52722,-0.0209229
 20:58:57.082,-0.00427017,0.0128111,-0.00183032,0,0,0,-1.48595,1.56207,-0.0221597,-1.44892,1.52733,-0.0209256
 20:58:57.092,-0.00427017,0.0128111,-0.00183032,0,0,0,-1.4861,1.56261,-0.022174,-1.44913,1.52772,-0.0209356
 20:58:57.102,-0.00427017,0.0128111,-0.00183032,0,0,0,-1.48567,1.56258,-0.0221731,-1.44905,1.52782,-0.0209383
 20:58:57.112,-0.00427017,0.0128111,-0.00183032,0,0,0,-1.48581,1.56253,-0.0221718,-1.44925,1.52792,-0.0209407
 20:58:57.122,-0.00427017,0.0128111,-0.00183032,0,0,0,-1.48596,1.5625,-0.0221709,-1.44946,1.52802,-0.0209433
 20:58:57.132,-0.00427017,0.0128111,-0.00183032,0,0,0,-1.48612,1.56306,-0.0221854,-1.44967,1.52842,-0.0209534
 20:58:57.142,-0.00427017,0.0128111,-0.00183032,0,0,0,-1.48629,1.56303,-0.0221849,-1.44988,1.52853,-0.0209562
 20:58:57.152,-0.00427017,0.0128111,-0.00183032,0,0,0,-1.48643,1.56357,-0.0221988,-1.45009,1.52891,-0.020966
 20:58:57.162,-0.00427017,0.0128111,-0.00183032,0,0,0,-1.48715,1.56411,-0.0222127,-1.45057,1.5293,-0.0209758
 20:58:57.172,-0.00427017,0.0128111,-0.00183032,0,0,0,-1.48671,1.56348,-0.0221964,-1.45049,1.52911,-0.020971
 20:58:57.183,-0.00427017,0.0128111,-0.00183032,0,0,0,-1.48745,1.56345,-0.0221957,-1.45098,1.52921,-0.0209736
 20:58:57.192,-0.00427017,0.0128111,-0.00183032,0,0,0,-1.48702,1.56285,-0.02218,-1.4509,1.52903,-0.020969
 20:58:57.202,-0.00427017,0.0128111,-0.00183032,0,0,0,-1.48716,1.56281,-0.0221791,-1.4511,1.52913,-0.0209715
 20:58:57.212,-0.00427017,0.0128111,-0.00183032,0,0,0,-1.48786,1.56276,-0.0221777,-1.45158,1.52922,-0.0209737
 20:58:57.222,-0.00427017,0.0128111,-0.00183032,0,0,0,-1.48741,1.56272,-0.0221768,-1.45149,1.52932,-0.0209762
 20:58:57.233,-0.00427017,0.0128111,-0.00183032,0,0,0,-1.48811,1.56267,-0.0221755,-1.45196,1.52941,-0.0209784
 20:58:57.243,-0.00427017,0.0128111,-0.00183032,0,0,0,-1.48824,1.56264,-0.0221746,-1.45215,1.5295,-0.0209809
 20:58:57.253,-0.00427017,0.0128111,-0.00183032,0,0,0,-1.48894,1.56318,-0.0221887,-1.45263,1.52988,-0.0209906
 20:58:57.263,-0.00427017,0.0128111,-0.00183032,0,0,0,-1.48848,1.56314,-0.0221876,-1.45253,1.52998,-0.020993
 20:58:57.272,-0.00427017,0.0128111,-0.00183032,0,0,0,-1.48859,1.56309,-0.0221862,-1.45272,1.53006,-0.0209951
 20:58:57.283,-0.00427017,0.0128111,-0.00183032,0,0,0,-1.48812,1.56303,-0.0221848,-1.45262,1.53015,-0.0209973
 20:58:57.293,-0.00427017,0.0128111,-0.00183032,0,0,0,-1.48825,1.56357,-0.0221988,-1.4528,1.53052,-0.021007
 20:58:57.303,-0.00427017,0.0128111,-0.00183032,0,0,0,-1.48836,1.56351,-0.0221972,-1.45299,1.53061,-0.0210091
 20:58:57.313,-0.00427017,0.0128111,-0.00183032,0,0,0,-1.48791,1.56289,-0.0221811,-1.45289,1.53041,-0.0210041
 20:58:57.322,-0.00427017,0.0128111,-0.00183032,0,0,0,-1.48746,1.56285,-0.0221801,-1.45279,1.5305,-0.0210064
 20:58:57.332,-0.00427017,0.0128111,-0.00183032,0,0,0,-1.48702,1.56224,-0.0221642,-1.4527,1.53031,-0.0210014
 20:58:57.342,-0.00427017,0.0128111,-0.00183032,0,0,0,-1.48716,1.56221,-0.0221634,-1.45289,1.5304,-0.0210037
 20:58:57.353,-0.00427017,0.0128111,-0.00183032,0,0,0,-1.4873,1.56218,-0.0221626,-1.45308,1.53049,-0.0210061
 20:58:57.363,-0.00427017,0.0128111,-0.00183032,0,0,0,-1.48686,1.56215,-0.0221619,-1.45298,1.53058,-0.0210084
 20:58:57.373,-0.00427017,0.0128111,-0.00183032,0,0,0,-1.48644,1.56271,-0.0221765,-1.45289,1.53096,-0.0210182
 20:58:57.382,-0.00427017,0.0128111,-0.00183032,0,0,0,-1.48602,1.56269,-0.022176,-1.4528,1.53106,-0.0210207
 20:58:57.392,-0.00427017,0.0128111,-0.00183032,0,0,0,-1.48617,1.56208,-0.0221601,-1.45299,1.53086,-0.0210156
 20:58:57.402,-0.00427017,0.0128111,-0.00183032,0,0,0,-1.48575,1.56207,-0.0221598,-1.4529,1.53096,-0.0210181
 20:58:57.412,-0.00427017,0.0128111,-0.00183032,0,0,0,-1.48534,1.56206,-0.0221594,-1.45281,1.53105,-0.0210205
 20:58:57.423,-0.00427017,0.0128111,-0.00183032,0,0,0,-1.48551,1.56204,-0.0221591,-1.453,1.53115,-0.021023
 20:58:57.433,-0.00427017,0.0128111,-0.00183032,0,0,0,-1.48568,1.56203,-0.0221588,-1.4532,1.53124,-0.0210254
 20:58:57.443,-0.00427017,0.0128111,-0.00183032,0,0,0,-1.48585,1.56202,-0.0221584,-1.45339,1.53134,-0.0210278
 20:58:57.453,-0.00427017,0.0128111,-0.00183032,0,0,0,-1.48544,1.562,-0.0221581,-1.4533,1.53143,-0.0210302
 20:58:57.463,-0.00427017,0.0128111,-0.00183032,0,0,0,-1.48561,1.56257,-0.0221728,-1.4535,1.53181,-0.0210399
 20:58:57.473,-0.00427017,0.0128111,-0.00183032,0,0,0,-1.48577,1.56313,-0.0221873,-1.45369,1.53219,-0.0210496
 20:58:57.483,-0.00427017,0.0128111,-0.00183032,0,0,0,-1.48593,1.56309,-0.0221863,-1.45387,1.53227,-0.0210516
 20:58:57.493,-0.00427017,0.0128111,-0.00183032,0,0,0,-1.48611,1.5625,-0.0221711,-1.45407,1.53208,-0.0210468
 20:58:57.503,-0.00427017,0.0128111,-0.00183032,0,0,0,-1.48627,1.56249,-0.0221706,-1.45426,1.53217,-0.0210491
 20:58:57.513,-0.00427017,0.0128111,-0.00183032,0,0,0,-1.48643,1.56247,-0.0221702,-1.45445,1.53226,-0.0210514
 20:58:57.523,-0.00427017,0.0128111,-0.00183032,0,0,0,-1.48661,1.56305,-0.0221851,-1.45465,1.53265,-0.0210612
 20:58:57.533,-0.00427017,0.0128111,-0.00183032,0,0,0,-1.48678,1.56304,-0.022185,-1.45484,1.53274,-0.0210636
 20:58:57.542,-0.00427017,0.0128111,-0.00183032,0,0,0,-1.48634,1.56358,-0.0221989,-1.45474,1.53311,-0.021073
 20:58:57.553,-0.00427017,0.0128111,-0.00183032,0,0,0,-1.48591,1.56411,-0.0222128,-1.45463,1.53347,-0.0210823
 20:58:57.563,-0.00427017,0.0128111,-0.00183032,0,0,0,-1.48606,1.56406,-0.0222115,-1.45481,1.53354,-0.0210842
 20:58:57.573,-0.00427017,0.0128111,-0.00183032,0,0,0,-1.48621,1.56401,-0.0222102,-1.45499,1.53362,-0.0210861
 20:58:57.583,-0.00427017,0.0128111,-0.00183032,0,0,0,-1.48637,1.56398,-0.0222094,-1.45518,1.5337,-0.0210882
 20:58:57.593,-0.00427017,0.0128111,-0.00183032,0,0,0,-1.48655,1.56396,-0.022209,-1.45537,1.53379,-0.0210905
 20:58:57.603,-0.00427017,0.0128111,-0.00183032,0,0,0,-1.48613,1.56393,-0.0222081,-1.45527,1.53387,-0.0210926
 20:58:57.613,-0.00427017,0.0128111,-0.00183032,0,0,0,-1.48514,1.5639,-0.0222073,-1.45488,1.53396,-0.0210947
 20:58:57.623,-0.00427017,0.0128111,-0.00183032,0,0,0,-1.48529,1.56385,-0.0222061,-1.45506,1.53403,-0.0210966
 20:58:57.633,-0.00427017,0.0128111,-0.00183032,0,0,0,-1.48489,1.56382,-0.0222053,-1.45496,1.53411,-0.0210987
 20:58:57.642,-0.00427017,0.0128111,-0.00183032,0,0,0,-1.48506,1.56379,-0.0222045,-1.45514,1.53419,-0.0211007
 20:58:57.652,-0.00427017,0.0128111,-0.00183032,0,0,0,-1.48466,1.56376,-0.0222037,-1.45504,1.53427,-0.0211028
 20:58:57.663,-0.00427017,0.0128111,-0.00183032,0,0,0,-1.48482,1.56372,-0.0222025,-1.45522,1.53434,-0.0211046
 20:58:57.673,-0.00427017,0.0128111,-0.00183032,0,0,0,-1.48439,1.56366,-0.0222009,-1.45511,1.5344,-0.0211063
 20:58:57.683,-0.00427017,0.0128111,-0.00183032,0,0,0,-1.48456,1.56361,-0.0221998,-1.45528,1.53448,-0.0211081
 20:58:57.693,-0.00427017,0.0128111,-0.00183032,0,0,0,-1.48472,1.56414,-0.0222136,-1.45546,1.53483,-0.0211172
 20:58:57.703,-0.00427017,0.0128111,-0.00183032,0,0,0,-1.48431,1.56409,-0.0222123,-1.45535,1.5349,-0.0211189
 20:58:57.713,-0.00427017,0.0128111,-0.00183032,0,0,0,-1.48506,1.56464,-0.0222264,-1.45582,1.53526,-0.0211282
 20:58:57.723,-0.00427017,0.0128111,-0.00183032,0,0,0,-1.48467,1.56462,-0.0222258,-1.45572,1.53534,-0.0211303
 20:58:57.733,-0.00427017,0.0128111,-0.00183032,0,0,0,-1.48484,1.56456,-0.0222244,-1.4559,1.53541,-0.021132
 20:58:57.743,-0.00427017,0.0128111,-0.00183032,0,0,0,-1.48498,1.56507,-0.0222376,-1.45606,1.53575,-0.0211408
 20:58:57.753,-0.00427017,0.0128111,-0.00183032,0,0,0,-1.4857,1.56499,-0.0222356,-1.45651,1.53581,-0.0211422
 20:58:57.763,-0.00427017,0.0128111,-0.00183032,0,0,0,-1.48528,1.56494,-0.0222341,-1.4564,1.53587,-0.0211439
 20:58:57.773,-0.00427017,0.0128111,-0.00183032,0,0,0,-1.48542,1.56486,-0.0222322,-1.45656,1.53593,-0.0211453
 20:58:57.783,-0.00427017,0.0128111,-0.00183032,0,0,0,-1.48498,1.56479,-0.0222303,-1.45644,1.53599,-0.0211467
 20:58:57.793,-0.00427017,0.0128111,-0.00183032,0,0,0,-1.48514,1.56473,-0.0222289,-1.45661,1.53605,-0.0211483
 20:58:57.803,-0.00427017,0.0128111,-0.00183032,0,0,0,-1.4853,1.56468,-0.0222275,-1.45678,1.53611,-0.0211499
 20:58:57.813,-0.00427017,0.0128111,-0.00183032,0,0,0,-1.48486,1.56461,-0.0222256,-1.45666,1.53617,-0.0211513
 20:58:57.823,-0.00427017,0.0128111,-0.00183032,0,0,0,-1.48443,1.56454,-0.0222238,-1.45654,1.53622,-0.0211527
 20:58:57.834,-0.00427017,0.0128111,-0.00183032,0,0,0,-1.48402,1.56449,-0.0222224,-1.45642,1.53628,-0.0211544
 20:58:57.843,-0.00427017,0.0128111,-0.00183032,0,0,0,-1.48419,1.56443,-0.0222211,-1.45659,1.53635,-0.0211559
 20:58:57.853,-0.00427017,0.0128111,-0.00183032,0,0,0,-1.48322,1.56497,-0.0222351,-1.4562,1.5367,-0.0211651
 20:58:57.863,-0.00427017,0.0128111,-0.00183032,0,0,0,-1.48285,1.56553,-0.0222494,-1.4561,1.53706,-0.0211743
 20:58:57.873,-0.00427017,0.0128111,-0.00183032,0,0,0,-1.48304,1.56548,-0.0222481,-1.45628,1.53713,-0.021176
 20:58:57.883,-0.00427017,0.0128111,-0.00183032,0,0,0,-1.48266,1.56543,-0.0222469,-1.45617,1.53719,-0.0211777
 20:58:57.894,-0.00427017,0.0128111,-0.00183032,0,0,0,-1.48228,1.56538,-0.0222457,-1.45607,1.53726,-0.0211794
 20:58:57.903,-0.00427017,0.0128111,-0.00183032,0,0,0,-1.48248,1.56476,-0.0222296,-1.45625,1.53704,-0.0211737
 20:58:57.913,-0.00427017,0.0128111,-0.00183032,0,0,0,-1.48268,1.56414,-0.0222136,-1.45643,1.53682,-0.021168
 20:58:57.923,-0.00427017,0.0128111,-0.00183032,0,0,0,-1.48228,1.56409,-0.0222123,-1.45631,1.53687,-0.0211695
 20:58:57.933,-0.00427017,0.0128111,-0.00183032,0,0,0,-1.48247,1.56404,-0.022211,-1.45649,1.53693,-0.021171
 20:58:57.943,-0.00427017,0.0128111,-0.00183032,0,0,0,-1.48267,1.56459,-0.0222251,-1.45666,1.53728,-0.02118
 20:58:57.953,-0.00427017,0.0128111,-0.00183032,0,0,0,-1.48288,1.56457,-0.0222245,-1.45685,1.53736,-0.0211819
 20:58:57.963,-0.00427017,0.0128111,-0.00183032,0,0,0,-1.4825,1.56453,-0.0222236,-1.45674,1.53742,-0.0211835
 20:58:57.973,-0.00427017,0.0128111,-0.00183032,0,0,0,-1.48212,1.56449,-0.0222226,-1.45663,1.53749,-0.0211852
 20:58:57.983,-0.00427017,0.0128111,-0.00183032,0,0,0,-1.48175,1.56445,-0.0222216,-1.45652,1.53755,-0.0211868
 20:58:57.993,-0.00427017,0.0128111,-0.00183032,0,0,0,-1.48195,1.56442,-0.0222207,-1.4567,1.53761,-0.0211884
 20:58:58.003,-0.00427017,0.0128111,-0.00183032,0,0,0,-1.48216,1.5638,-0.0222048,-1.45688,1.53739,-0.0211827
 20:58:58.014,-0.00427017,0.0128111,-0.00183032,0,0,0,-1.48236,1.56377,-0.022204,-1.45705,1.53745,-0.0211843
 20:58:58.023,-0.00427017,0.0128111,-0.00183032,0,0,0,-1.48256,1.56316,-0.0221883,-1.45723,1.53723,-0.0211786
 20:58:58.034,-0.00427017,0.0128111,-0.00183032,0,0,0,-1.48218,1.56256,-0.0221727,-1.45712,1.53701,-0.0211729
 20:58:58.043,-0.00427017,0.0128111,-0.00183032,0,0,0,-1.48237,1.56253,-0.0221718,-1.45729,1.53707,-0.0211744
 20:58:58.054,-0.00427017,0.0128111,-0.00183032,0,0,0,-1.48197,1.56248,-0.0221706,-1.45716,1.53712,-0.0211757
 20:58:58.064,-0.00427017,0.0128111,-0.00183032,0,0,0,-1.48214,1.56243,-0.0221693,-1.45732,1.53717,-0.021177
 20:58:58.073,-0.00427017,0.0128111,-0.00183032,0,0,0,-1.48233,1.5624,-0.0221685,-1.45749,1.53722,-0.0211784
 20:58:58.083,-0.00427017,0.0128111,-0.00183032,0,0,0,-1.48308,1.56293,-0.0221822,-1.45793,1.53756,-0.021187
 20:58:58.093,-0.00427017,0.0128111,-0.00183032,0,0,0,-1.48324,1.56345,-0.0221957,-1.45809,1.53789,-0.0211955
 20:58:58.103,-0.00427017,0.0128111,-0.00183032,0,0,0,-1.4834,1.56339,-0.0221942,-1.45824,1.53794,-0.0211967
 20:58:58.113,-0.00427017,0.0128111,-0.00183032,0,0,0,-1.48354,1.56332,-0.0221923,-1.45839,1.53798,-0.0211976
 20:58:58.123,-0.00427017,0.0128111,-0.00183032,0,0,0,-1.48314,1.56328,-0.0221912,-1.45826,1.53803,-0.021199
 20:58:58.134,-0.00427017,0.0128111,-0.00183032,0,0,0,-1.48273,1.56322,-0.0221898,-1.45813,1.53807,-0.0212002
 20:58:58.144,-0.00427017,0.0128111,-0.00183032,0,0,0,-1.48232,1.56317,-0.0221883,-1.458,1.53812,-0.0212013
 20:58:58.154,-0.00427017,0.0128111,-0.00183032,0,0,0,-1.4825,1.56313,-0.0221873,-1.45817,1.53817,-0.0212027
 20:58:58.164,-0.00427017,0.0128111,-0.00183032,0,0,0,-1.48269,1.56309,-0.0221863,-1.45833,1.53822,-0.021204
 20:58:58.174,-0.00427017,0.0128111,-0.00183032,0,0,0,-1.48229,1.56247,-0.0221703,-1.45821,1.53799,-0.021198
 20:58:58.183,-0.00427017,0.0128111,-0.00183032,0,0,0,-1.48249,1.56245,-0.0221699,-1.45838,1.53805,-0.0211996
 20:58:58.193,-0.00427017,0.0128111,-0.00183032,0,0,0,-1.48268,1.56184,-0.0221541,-1.45854,1.53782,-0.0211936
 20:58:58.203,-0.00427017,0.0128111,-0.00183032,0,0,0,-1.48228,1.56182,-0.0221534,-1.45841,1.53787,-0.021195
 20:58:58.214,-0.00427017,0.0128111,-0.00183032,0,0,0,-1.48189,1.56179,-0.0221527,-1.45829,1.53793,-0.0211964
 20:58:58.224,-0.00427017,0.0128111,-0.00183032,0,0,0,-1.48208,1.56234,-0.022167,-1.45845,1.53827,-0.0212051
 20:58:58.234,-0.00427017,0.0128111,-0.00183032,0,0,0,-1.48169,1.56289,-0.0221811,-1.45833,1.5386,-0.0212137
 20:58:58.244,-0.00427017,0.0128111,-0.00183032,0,0,0,-1.48189,1.56285,-0.0221802,-1.45849,1.53865,-0.021215
 20:58:58.254,-0.00427017,0.0128111,-0.00183032,0,0,0,-1.48151,1.56283,-0.0221796,-1.45837,1.53871,-0.0212165
 20:58:58.264,-0.00427017,0.0128111,-0.00183032,0,0,0,-1.48174,1.56282,-0.0221795,-1.45855,1.53878,-0.0212182
 20:58:58.274,-0.00427017,0.0128111,-0.00183032,0,0,0,-1.48135,1.56279,-0.0221786,-1.45842,1.53882,-0.0212195
 20:58:58.283,-0.00427017,0.0128111,-0.00183032,0,0,0,-1.48155,1.56275,-0.0221776,-1.45858,1.53887,-0.0212207
 20:58:58.294,-0.00427017,0.0128111,-0.00183032,0,0,0,-1.4823,1.56212,-0.0221614,-1.45902,1.53863,-0.0212144
 20:58:58.304,-0.00427017,0.0128111,-0.00183032,0,0,0,-1.48248,1.5615,-0.0221453,-1.45917,1.53839,-0.0212081
 20:58:58.314,-0.00427017,0.0128111,-0.00183032,0,0,0,-1.48266,1.56148,-0.0221447,-1.45933,1.53844,-0.0212094
 20:58:58.324,-0.00427017,0.0128111,-0.00183032,0,0,0,-1.48228,1.56147,-0.0221445,-1.45921,1.5385,-0.0212109
 20:58:58.334,-0.00427017,0.0128111,-0.00183032,0,0,0,-1.48248,1.56204,-0.0221593,-1.45937,1.53884,-0.0212198
 20:58:58.344,-0.00427017,0.0128111,-0.00183032,0,0,0,-1.48268,1.56261,-0.0221739,-1.45954,1.53918,-0.0212286
 20:58:58.354,-0.00427017,0.0128111,-0.00183032,0,0,0,-1.48288,1.56259,-0.0221734,-1.4597,1.53924,-0.02123
 20:58:58.363,-0.00427017,0.0128111,-0.00183032,0,0,0,-1.48307,1.56257,-0.0221729,-1.45986,1.53929,-0.0212314
 20:58:58.373,-0.00427017,0.0128111,-0.00183032,0,0,0,-1.48268,1.56254,-0.0221721,-1.45973,1.53934,-0.0212326
 20:58:58.384,-0.00427017,0.0128111,-0.00183032,0,0,0,-1.4823,1.56252,-0.0221716,-1.45961,1.53939,-0.021234
 20:58:58.394,-0.00427017,0.0128111,-0.00183032,0,0,0,-1.48192,1.5625,-0.0221712,-1.45948,1.53945,-0.0212354
 20:58:58.404,-0.00427017,0.0128111,-0.00183032,0,0,0,-1.48212,1.56248,-0.0221707,-1.45965,1.5395,-0.0212367
 20:58:58.414,-0.00427017,0.0128111,-0.00183032,0,0,0,-1.48233,1.56247,-0.0221703,-1.45981,1.53955,-0.0212381
 20:58:58.424,-0.00427017,0.0128111,-0.00183032,0,0,0,-1.48195,1.56245,-0.0221698,-1.45968,1.53961,-0.0212395
 20:58:58.434,-0.00427017,0.0128111,-0.00183032,0,0,0,-1.48216,1.56243,-0.0221694,-1.45985,1.53966,-0.0212408
 20:58:58.444,-0.00427017,0.0128111,-0.00183032,0,0,0,-1.48119,1.5624,-0.0221686,-1.45943,1.53971,-0.021242
 20:58:58.453,-0.00427017,0.0128111,-0.00183032,0,0,0,-1.4814,1.56239,-0.0221681,-1.45959,1.53976,-0.0212434
 20:58:58.464,-0.00427017,0.0128111,-0.00183032,0,0,0,-1.48161,1.56237,-0.0221677,-1.45976,1.53981,-0.0212447
 20:58:58.474,-0.00427017,0.0128111,-0.00183032,0,0,0,-1.48182,1.56235,-0.0221673,-1.45992,1.53986,-0.021246
 20:58:58.484,-0.00427017,0.0128111,-0.00183032,0,0,0,-1.48318,1.56291,-0.0221818,-1.46065,1.5402,-0.0212546
 20:58:58.494,-0.00427017,0.0128111,-0.00183032,0,0,0,-1.48164,1.56232,-0.0221663,-1.45995,1.53996,-0.0212486
 20:58:58.504,-0.00427017,0.0128111,-0.00183032,0,0,0,-1.4818,1.56168,-0.0221498,-1.46009,1.53971,-0.021242
 20:58:58.514,-0.00427017,0.0128111,-0.00183032,0,0,0,-1.48201,1.56167,-0.0221496,-1.46025,1.53976,-0.0212433
 20:58:58.524,-0.00427017,0.0128111,-0.00183032,0,0,0,-1.48106,1.56224,-0.0221643,-1.45984,1.5401,-0.021252
 20:58:58.533,-0.00427017,0.0128111,-0.00183032,0,0,0,-1.48185,1.56222,-0.0221639,-1.46029,1.54015,-0.0212533
 20:58:58.544,-0.00427017,0.0128111,-0.00183032,0,0,0,-1.48091,1.56164,-0.022149,-1.45988,1.53992,-0.0212475
 20:58:58.554,-0.00427017,0.0128111,-0.00183032,0,0,0,-1.48227,1.5622,-0.0221633,-1.46061,1.54025,-0.0212559
 20:58:58.564,-0.00427017,0.0128111,-0.00183032,0,0,0,-1.48131,1.56218,-0.0221629,-1.46019,1.5403,-0.0212572
 20:58:58.574,-0.00427017,0.0128111,-0.00183032,0,0,0,-1.48209,1.56273,-0.022177,-1.46063,1.54062,-0.0212656
 20:58:58.584,-0.00427017,0.0128111,-0.00183032,0,0,0,-1.48227,1.56327,-0.0221911,-1.46078,1.54095,-0.0212739
 20:58:58.594,-0.00427017,0.0128111,-0.00183032,0,0,0,-1.48187,1.56379,-0.0222045,-1.46064,1.54127,-0.0212821
 20:58:58.603,-0.00427017,0.0128111,-0.00183032,0,0,0,-1.48262,1.56373,-0.0222029,-1.46106,1.54129,-0.0212828
 20:58:58.614,-0.00427017,0.0128111,-0.00183032,0,0,0,-1.48224,1.5637,-0.0222021,-1.46093,1.54134,-0.0212839
 20:58:58.624,-0.00427017,0.0128111,-0.00183032,0,0,0,-1.48358,1.56366,-0.022201,-1.46165,1.54138,-0.0212848
 20:58:58.634,-0.00427017,0.0128111,-0.00183032,0,0,0,-1.48262,1.56363,-0.0222002,-1.46123,1.54142,-0.021286
 20:58:58.644,-0.00427017,0.0128111,-0.00183032,0,0,0,-1.48394,1.56414,-0.0222136,-1.46194,1.54173,-0.021294
 20:58:58.654,-0.00427017,0.0128111,-0.00183032,0,0,0,-1.48354,1.56411,-0.0222127,-1.46181,1.54178,-0.0212951
 20:58:58.664,-0.00427017,0.0128111,-0.00183032,0,0,0,-1.48429,1.56464,-0.0222264,-1.46224,1.54209,-0.0213033
 20:58:58.674,-0.00427017,0.0128111,-0.00183032,0,0,0,-1.48388,1.56516,-0.0222399,-1.46209,1.54241,-0.0213115
 20:58:58.684,-0.00427017,0.0128111,-0.00183032,0,0,0,-1.48404,1.56566,-0.0222529,-1.46223,1.54272,-0.0213194
 20:58:58.694,-0.00427017,0.0128111,-0.00183032,0,0,0,-1.48419,1.56616,-0.0222658,-1.46236,1.54303,-0.0213273
 20:58:58.704,-0.00427017,0.0128111,-0.00183032,0,0,0,-1.48436,1.56551,-0.022249,-1.46251,1.54277,-0.0213207
 20:58:58.715,-0.00427017,0.0128111,-0.00183032,0,0,0,-1.48452,1.56545,-0.0222474,-1.46265,1.5428,-0.0213214
 20:58:58.724,-0.00427017,0.0128111,-0.00183032,0,0,0,-1.48469,1.56538,-0.0222458,-1.46279,1.54283,-0.0213222
 20:58:58.734,-0.00427017,0.0128111,-0.00183032,0,0,0,-1.48483,1.56588,-0.0222587,-1.46292,1.54314,-0.0213301
 20:58:58.744,-0.00427017,0.0128111,-0.00183032,0,0,0,-1.48498,1.5658,-0.0222565,-1.46305,1.54316,-0.0213306
 20:58:58.754,-0.00427017,0.0128111,-0.00183032,0,0,0,-1.48514,1.56573,-0.0222548,-1.46319,1.54318,-0.0213313
 20:58:58.765,-0.00427017,0.0128111,-0.00183032,0,0,0,-1.4853,1.56567,-0.0222531,-1.46332,1.54321,-0.021332
 20:58:58.774,-0.00427017,0.0128111,-0.00183032,0,0,0,-1.48603,1.5656,-0.0222515,-1.46375,1.54324,-0.0213326
 20:58:58.784,-0.00427017,0.0128111,-0.00183032,0,0,0,-1.48618,1.56496,-0.0222348,-1.46388,1.54298,-0.0213259
 20:58:58.794,-0.00427017,0.0128111,-0.00183032,0,0,0,-1.48631,1.56489,-0.0222329,-1.46401,1.543,-0.0213265
 20:58:58.804,-0.00427017,0.0128111,-0.00183032,0,0,0,-1.48644,1.56482,-0.022231,-1.46413,1.54302,-0.021327
 20:58:58.814,-0.00427017,0.0128111,-0.00183032,0,0,0,-1.48659,1.56418,-0.0222146,-1.46427,1.54276,-0.0213203
 20:58:58.824,-0.00427017,0.0128111,-0.00183032,0,0,0,-1.48617,1.56415,-0.0222137,-1.46412,1.5428,-0.0213213
 20:58:58.834,-0.00427017,0.0128111,-0.00183032,0,0,0,-1.48633,1.56354,-0.0221979,-1.46426,1.54255,-0.0213149
 20:58:58.844,-0.00427017,0.0128111,-0.00183032,0,0,0,-1.4859,1.56349,-0.0221967,-1.46411,1.54258,-0.0213157
 20:58:58.854,-0.00427017,0.0128111,-0.00183032,0,0,0,-1.48547,1.56345,-0.0221956,-1.46396,1.54261,-0.0213165
 20:58:58.864,-0.00427017,0.0128111,-0.00183032,0,0,0,-1.48504,1.56339,-0.0221941,-1.4638,1.54264,-0.0213171
 20:58:58.875,-0.00427017,0.0128111,-0.00183032,0,0,0,-1.48518,1.56334,-0.0221926,-1.46392,1.54266,-0.0213176
 20:58:58.884,-0.00427017,0.0128111,-0.00183032,0,0,0,-1.48534,1.56329,-0.0221915,-1.46406,1.54269,-0.0213184
 20:58:58.894,-0.00427017,0.0128111,-0.00183032,0,0,0,-1.48549,1.56325,-0.0221905,-1.46419,1.54272,-0.0213191
 20:58:58.905,-0.00427017,0.0128111,-0.00183032,0,0,0,-1.48507,1.56264,-0.0221745,-1.46404,1.54246,-0.0213126
 20:58:58.915,-0.00427017,0.0128111,-0.00183032,0,0,0,-1.48464,1.56259,-0.0221732,-1.46388,1.54248,-0.0213132
 20:58:58.924,-0.00427017,0.0128111,-0.00183032,0,0,0,-1.48479,1.56254,-0.0221719,-1.46401,1.54251,-0.0213138
 20:58:58.934,-0.00427017,0.0128111,-0.00183032,0,0,0,-1.48495,1.5625,-0.022171,-1.46414,1.54254,-0.0213145
 20:58:58.945,-0.00427017,0.0128111,-0.00183032,0,0,0,-1.48511,1.56305,-0.0221851,-1.46427,1.54285,-0.0213227
 20:58:58.955,-0.00427017,0.0128111,-0.00183032,0,0,0,-1.48525,1.56357,-0.0221986,-1.4644,1.54316,-0.0213306
 20:58:58.964,-0.00427017,0.0128111,-0.00183032,0,0,0,-1.48484,1.56412,-0.0222129,-1.46425,1.54348,-0.0213389
 20:58:58.975,-0.00427017,0.0128111,-0.00183032,0,0,0,-1.485,1.56407,-0.0222116,-1.46438,1.54351,-0.0213395
 20:58:58.984,-0.00427017,0.0128111,-0.00183032,0,0,0,-1.48458,1.56402,-0.0222103,-1.46423,1.54353,-0.0213402
 20:58:58.994,-0.00427017,0.0128111,-0.00183032,0,0,0,-1.48475,1.56397,-0.0222091,-1.46436,1.54356,-0.0213408
 20:58:59.004,-0.00427017,0.0128111,-0.00183032,0,0,0,-1.48489,1.56391,-0.0222074,-1.46448,1.54358,-0.0213413
 20:58:59.014,-0.00427017,0.0128111,-0.00183032,0,0,0,-1.48449,1.56388,-0.0222066,-1.46434,1.54361,-0.0213422
 20:58:59.025,-0.00427017,0.0128111,-0.00183032,0,0,0,-1.48408,1.56383,-0.0222054,-1.46418,1.54363,-0.0213428
 20:58:59.035,-0.00427017,0.0128111,-0.00183032,0,0,0,-1.48423,1.56377,-0.0222038,-1.46431,1.54365,-0.0213433
 20:58:59.044,-0.00427017,0.0128111,-0.00183032,0,0,0,-1.48381,1.56371,-0.0222022,-1.46415,1.54367,-0.0213437
 20:58:59.055,-0.00427017,0.0128111,-0.00183032,0,0,0,-1.48339,1.56365,-0.0222006,-1.46399,1.54369,-0.0213442
 20:58:59.065,-0.00427017,0.0128111,-0.00183032,0,0,0,-1.48299,1.5636,-0.0221995,-1.46384,1.54371,-0.0213448
 20:58:59.074,-0.00427017,0.0128111,-0.00183032,0,0,0,-1.48317,1.56298,-0.0221834,-1.46397,1.54345,-0.0213381
 20:58:59.085,-0.00427017,0.0128111,-0.00183032,0,0,0,-1.48277,1.56294,-0.0221824,-1.46382,1.54348,-0.0213388
 20:58:59.094,-0.00427017,0.0128111,-0.00183032,0,0,0,-1.48293,1.56289,-0.0221811,-1.46394,1.54349,-0.0213392
 20:58:59.105,-0.00427017,0.0128111,-0.00183032,0,0,0,-1.48311,1.56343,-0.022195,-1.46408,1.54381,-0.0213472
 20:58:59.115,-0.00427017,0.0128111,-0.00183032,0,0,0,-1.48327,1.56337,-0.0221935,-1.4642,1.54382,-0.0213477
 20:58:59.125,-0.00427017,0.0128111,-0.00183032,0,0,0,-1.48345,1.56333,-0.0221924,-1.46434,1.54385,-0.0213483
 20:58:59.135,-0.00427017,0.0128111,-0.00183032,0,0,0,-1.48361,1.56327,-0.022191,-1.46446,1.54386,-0.0213487
 20:58:59.144,-0.00427017,0.0128111,-0.00183032,0,0,0,-1.4838,1.56382,-0.0222053,-1.4646,1.54418,-0.0213569
 20:58:59.155,-0.00427017,0.0128111,-0.00183032,0,0,0,-1.48397,1.56378,-0.0222041,-1.46473,1.5442,-0.0213574
 20:58:59.164,-0.00427017,0.0128111,-0.00183032,0,0,0,-1.48356,1.56373,-0.0222029,-1.46457,1.54422,-0.021358
 20:58:59.174,-0.00427017,0.0128111,-0.00183032,0,0,0,-1.48374,1.56369,-0.0222017,-1.4647,1.54425,-0.0213586
 20:58:59.184,-0.00427017,0.0128111,-0.00183032,0,0,0,-1.48391,1.56364,-0.0222006,-1.46483,1.54427,-0.0213591
 20:58:59.194,-0.00427017,0.0128111,-0.00183032,0,0,0,-1.48409,1.56361,-0.0221998,-1.46497,1.5443,-0.0213599
 20:58:59.204,-0.00427017,0.0128111,-0.00183032,0,0,0,-1.4837,1.56301,-0.0221841,-1.46482,1.54404,-0.0213533
 20:58:59.214,-0.00427017,0.0128111,-0.00183032,0,0,0,-1.48332,1.56242,-0.022169,-1.46468,1.54379,-0.0213469
 20:58:59.224,-0.00427017,0.0128111,-0.00183032,0,0,0,-1.48351,1.56241,-0.0221685,-1.46482,1.54383,-0.0213477
 20:58:59.235,-0.00427017,0.0128111,-0.00183032,0,0,0,-1.48428,1.56181,-0.0221531,-1.46524,1.54357,-0.0213411
 20:58:59.245,-0.00427017,0.0128111,-0.00183032,0,0,0,-1.48504,1.5618,-0.0221529,-1.46566,1.54361,-0.021342
 20:58:59.255,-0.00427017,0.0128111,-0.00183032,0,0,0,-1.48464,1.56121,-0.0221376,-1.46551,1.54335,-0.0213354
 20:58:59.265,-0.00427017,0.0128111,-0.00183032,0,0,0,-1.48538,1.56119,-0.0221371,-1.46592,1.54338,-0.0213361
 20:58:59.275,-0.00427017,0.0128111,-0.00183032,0,0,0,-1.48555,1.56177,-0.022152,-1.46605,1.5437,-0.0213443
 20:58:59.285,-0.00427017,0.0128111,-0.00183032,0,0,0,-1.4857,1.56232,-0.0221663,-1.46617,1.54401,-0.0213523
 20:58:59.295,-0.00427017,0.0128111,-0.00183032,0,0,0,-1.48585,1.56229,-0.0221655,-1.46629,1.54403,-0.0213529
 20:58:59.305,-0.00427017,0.0128111,-0.00183032,0,0,0,-1.48602,1.56169,-0.0221501,-1.46642,1.54378,-0.0213463
 20:58:59.315,-0.00427017,0.0128111,-0.00183032,0,0,0,-1.4862,1.5617,-0.0221503,-1.46656,1.54382,-0.0213473
 20:58:59.325,-0.00427017,0.0128111,-0.00183032,0,0,0,-1.48636,1.56111,-0.022135,-1.46669,1.54356,-0.0213408
 20:58:59.335,-0.00427017,0.0128111,-0.00183032,0,0,0,-1.48652,1.56111,-0.0221349,-1.46682,1.5436,-0.0213416
 20:58:59.345,-0.00427017,0.0128111,-0.00183032,0,0,0,-1.48668,1.56053,-0.0221199,-1.46694,1.54334,-0.0213351
 20:58:59.355,-0.00427017,0.0128111,-0.00183032,0,0,0,-1.48626,1.56053,-0.0221199,-1.46678,1.54338,-0.021336
 20:58:59.365,-0.00427017,0.0128111,-0.00183032,0,0,0,-1.48583,1.56052,-0.0221196,-1.46662,1.54341,-0.0213367
 20:58:59.375,-0.00427017,0.0128111,-0.00183032,0,0,0,-1.48598,1.5605,-0.0221192,-1.46674,1.54343,-0.0213373
 20:58:59.385,-0.00427017,0.0128111,-0.00183032,0,0,0,-1.48613,1.56049,-0.0221189,-1.46686,1.54346,-0.021338
 20:58:59.395,-0.00427017,0.0128111,-0.00183032,0,0,0,-1.48572,1.56049,-0.022119,-1.4667,1.54349,-0.0213389
 20:58:59.405,-0.00427017,0.0128111,-0.00183032,0,0,0,-1.48588,1.56107,-0.022134,-1.46683,1.54381,-0.0213471
 20:58:59.415,-0.00427017,0.0128111,-0.00183032,0,0,0,-1.48603,1.56105,-0.0221335,-1.46695,1.54383,-0.0213478
 20:58:59.425,-0.00427017,0.0128111,-0.00183032,0,0,0,-1.48618,1.56104,-0.022133,-1.46706,1.54386,-0.0213484
 20:58:59.435,-0.00427017,0.0128111,-0.00183032,0,0,0,-1.48631,1.561,-0.0221322,-1.46717,1.54387,-0.0213488
 20:58:59.445,-0.00427017,0.0128111,-0.00183032,0,0,0,-1.48644,1.56097,-0.0221313,-1.46728,1.54389,-0.0213492
 20:58:59.455,-0.00427017,0.0128111,-0.00183032,0,0,0,-1.48657,1.56093,-0.0221304,-1.46739,1.54391,-0.0213496
 20:58:59.465,-0.00427017,0.0128111,-0.00183032,0,0,0,-1.48672,1.56034,-0.022115,-1.46751,1.54365,-0.0213428
 20:58:59.475,-0.00427017,0.0128111,-0.00183032,0,0,0,-1.48686,1.56033,-0.0221147,-1.46763,1.54367,-0.0213434
 20:58:59.485,-0.00427017,0.0128111,-0.00183032,0,0,0,-1.48642,1.56032,-0.0221144,-1.46746,1.5437,-0.0213441
 20:58:59.495,-0.00427017,0.0128111,-0.00183032,0,0,0,-1.48599,1.56031,-0.0221141,-1.46729,1.54372,-0.0213448
 20:58:59.505,-0.00427017,0.0128111,-0.00183032,0,0,0,-1.48614,1.56029,-0.0221138,-1.4674,1.54374,-0.0213454
 20:58:59.515,-0.00427017,0.0128111,-0.00183032,0,0,0,-1.48629,1.55971,-0.0220986,-1.46752,1.54348,-0.0213386
 20:58:59.525,-0.00427017,0.0128111,-0.00183032,0,0,0,-1.48644,1.5597,-0.0220984,-1.46764,1.54351,-0.0213393
 20:58:59.536,-0.00427017,0.0128111,-0.00183032,0,0,0,-1.48658,1.5597,-0.0220983,-1.46775,1.54354,-0.0213399
 20:58:59.545,-0.00427017,0.0128111,-0.00183032,0,0,0,-1.48615,1.56027,-0.0221131,-1.46758,1.54385,-0.021348
 20:58:59.555,-0.00427017,0.0128111,-0.00183032,0,0,0,-1.4857,1.56024,-0.0221124,-1.4674,1.54386,-0.0213484
 20:58:59.565,-0.00427017,0.0128111,-0.00183032,0,0,0,-1.48585,1.56023,-0.0221122,-1.46752,1.54389,-0.021349
 20:58:59.575,-0.00427017,0.0128111,-0.00183032,0,0,0,-1.48602,1.56081,-0.0221273,-1.46764,1.5442,-0.0213572
 20:58:59.585,-0.00427017,0.0128111,-0.00183032,0,0,0,-1.48618,1.56081,-0.0221273,-1.46777,1.54423,-0.021358
 20:58:59.595,-0.00427017,0.0128111,-0.00183032,0,0,0,-1.48633,1.5608,-0.0221269,-1.46788,1.54426,-0.0213586
 20:58:59.606,-0.00427017,0.0128111,-0.00183032,0,0,0,-1.48593,1.56081,-0.0221273,-1.46772,1.54429,-0.0213595
 20:58:59.616,-0.00427017,0.0128111,-0.00183032,0,0,0,-1.48609,1.56081,-0.0221272,-1.46785,1.54432,-0.0213603
 20:58:59.626,-0.00427017,0.0128111,-0.00183032,0,0,0,-1.48568,1.56081,-0.0221272,-1.46768,1.54435,-0.0213611
 20:58:59.635,-0.00427017,0.0128111,-0.00183032,0,0,0,-1.48526,1.5608,-0.0221268,-1.46751,1.54437,-0.0213617
 20:58:59.645,-0.00427017,0.0128111,-0.00183032,0,0,0,-1.48483,1.56078,-0.0221264,-1.46734,1.5444,-0.0213622
 20:58:59.655,-0.00427017,0.0128111,-0.00183032,0,0,0,-1.48503,1.5608,-0.0221268,-1.46747,1.54443,-0.0213632
 20:58:59.665,-0.00427017,0.0128111,-0.00183032,0,0,0,-1.48579,1.56081,-0.0221272,-1.46789,1.54447,-0.0213641
 20:58:59.675,-0.00427017,0.0128111,-0.00183032,0,0,0,-1.48596,1.56081,-0.0221272,-1.46801,1.5445,-0.0213648
 20:58:59.686,-0.00427017,0.0128111,-0.00183032,0,0,0,-1.48612,1.56081,-0.0221272,-1.46813,1.54453,-0.0213655
 20:58:59.695,-0.00427017,0.0128111,-0.00183032,0,0,0,-1.48569,1.56079,-0.0221268,-1.46796,1.54455,-0.0213661
 20:58:59.705,-0.00427017,0.0128111,-0.00183032,0,0,0,-1.48586,1.56079,-0.0221267,-1.46808,1.54458,-0.0213668
 20:58:59.715,-0.00427017,0.0128111,-0.00183032,0,0,0,-1.48603,1.56079,-0.0221267,-1.4682,1.5446,-0.0213675
 20:58:59.725,-0.00427017,0.0128111,-0.00183032,0,0,0,-1.48618,1.56078,-0.0221263,-1.46832,1.54462,-0.021368
 20:58:59.736,-0.00427017,0.0128111,-0.00183032,0,0,0,-1.48575,1.56076,-0.0221259,-1.46814,1.54464,-0.0213686
 20:58:59.745,-0.00427017,0.0128111,-0.00183032,0,0,0,-1.48588,1.56131,-0.02214,-1.46825,1.54494,-0.0213763
 20:58:59.755,-0.00427017,0.0128111,-0.00183032,0,0,0,-1.48546,1.56129,-0.0221395,-1.46807,1.54496,-0.0213768
 20:58:59.765,-0.00427017,0.0128111,-0.00183032,0,0,0,-1.48505,1.56128,-0.0221394,-1.46791,1.54499,-0.0213774
 20:58:59.775,-0.00427017,0.0128111,-0.00183032,0,0,0,-1.48521,1.56126,-0.0221388,-1.46802,1.545,-0.0213779
 20:58:59.785,-0.00427017,0.0128111,-0.00183032,0,0,0,-1.48538,1.56125,-0.0221387,-1.46814,1.54503,-0.0213786
 20:58:59.796,-0.00427017,0.0128111,-0.00183032,0,0,0,-1.48553,1.56123,-0.0221382,-1.46826,1.54505,-0.021379
 20:58:59.806,-0.00427017,0.0128111,-0.00183032,0,0,0,-1.48513,1.56123,-0.022138,-1.46809,1.54507,-0.0213797
 20:58:59.816,-0.00427017,0.0128111,-0.00183032,0,0,0,-1.48528,1.56121,-0.0221375,-1.4682,1.54509,-0.0213802
 20:58:59.826,-0.00427017,0.0128111,-0.00183032,0,0,0,-1.48546,1.5612,-0.0221374,-1.46832,1.54512,-0.0213808
 20:58:59.836,-0.00427017,0.0128111,-0.00183032,0,0,0,-1.48563,1.5612,-0.0221373,-1.46844,1.54514,-0.0213815
 20:58:59.845,-0.00427017,0.0128111,-0.00183032,0,0,0,-1.48578,1.56118,-0.0221368,-1.46855,1.54516,-0.0213819
 20:58:59.855,-0.00427017,0.0128111,-0.00183032,0,0,0,-1.48594,1.56118,-0.0221367,-1.46867,1.54519,-0.0213826
 20:58:59.866,-0.00427017,0.0128111,-0.00183032,0,0,0,-1.48553,1.56117,-0.0221365,-1.4685,1.54521,-0.0213832
 20:58:59.876,-0.00427017,0.0128111,-0.00183032,0,0,0,-1.4857,1.56117,-0.0221364,-1.46862,1.54524,-0.0213839
 20:58:59.886,-0.00427017,0.0128111,-0.00183032,0,0,0,-1.48587,1.56116,-0.0221363,-1.46874,1.54526,-0.0213845
 20:58:59.896,-0.00427017,0.0128111,-0.00183032,0,0,0,-1.48603,1.56116,-0.0221362,-1.46886,1.54529,-0.0213851
 20:58:59.906,-0.00427017,0.0128111,-0.00183032,0,0,0,-1.48621,1.56117,-0.0221365,-1.46898,1.54532,-0.0213859
 20:58:59.916,-0.00427017,0.0128111,-0.00183032,0,0,0,-1.48638,1.56117,-0.0221364,-1.4691,1.54534,-0.0213866
 20:58:59.926,-0.00427017,0.0128111,-0.00183032,0,0,0,-1.48711,1.56116,-0.0221363,-1.4695,1.54537,-0.0213872
 20:58:59.936,-0.00427017,0.0128111,-0.00183032,0,0,0,-1.48727,1.56116,-0.0221362,-1.46961,1.54539,-0.0213878
 20:58:59.946,-0.00427017,0.0128111,-0.00183032,0,0,0,-1.48742,1.56116,-0.0221361,-1.46973,1.54541,-0.0213884
 20:58:59.956,-0.00427017,0.0128111,-0.00183032,0,0,0,-1.48699,1.56115,-0.022136,-1.46955,1.54544,-0.021389
 20:58:59.966,-0.00427017,0.0128111,-0.00183032,0,0,0,-1.48714,1.56115,-0.0221359,-1.46967,1.54546,-0.0213896
 20:58:59.976,-0.00427017,0.0128111,-0.00183032,0,0,0,-1.48672,1.56057,-0.0221208,-1.46949,1.5452,-0.0213829
 20:58:59.986,-0.00427017,0.0128111,-0.00183032,0,0,0,-1.48688,1.56057,-0.0221209,-1.46961,1.54523,-0.0213835
 20:58:59.996,-0.00427017,0.0128111,-0.00183032,0,0,0,-1.48646,1.56057,-0.0221209,-1.46943,1.54525,-0.0213842
 20:59:00.006,-0.00427017,0.0128111,-0.00183032,0,0,0,-1.48604,1.56057,-0.022121,-1.46926,1.54528,-0.0213848
 20:59:00.016,-0.00427017,0.0128111,-0.00183032,0,0,0,-1.4862,1.56115,-0.022136,-1.46938,1.54559,-0.0213929
 20:59:00.026,-0.00427017,0.0128111,-0.00183032,0,0,0,-1.48638,1.56116,-0.0221363,-1.4695,1.54562,-0.0213936
 20:59:00.036,-0.00427017,0.0128111,-0.00183032,0,0,0,-1.48652,1.56114,-0.0221358,-1.4696,1.54563,-0.021394
 20:59:00.046,-0.00427017,0.0128111,-0.00183032,0,0,0,-1.48724,1.56112,-0.0221353,-1.46999,1.54565,-0.0213944
 20:59:00.055,-0.00427017,0.0128111,-0.00183032,0,0,0,-1.4868,1.5611,-0.0221348,-1.46981,1.54566,-0.0213948
 20:59:00.065,-0.00427017,0.0128111,-0.00183032,0,0,0,-1.48635,1.56049,-0.0221189,-1.46963,1.54539,-0.0213876
 20:59:00.075,-0.00427017,0.0128111,-0.00183032,0,0,0,-1.4865,1.56106,-0.0221336,-1.46973,1.54569,-0.0213954
 20:59:00.086,-0.00427017,0.0128111,-0.00183032,0,0,0,-1.48664,1.56162,-0.0221481,-1.46984,1.54599,-0.0214032
 20:59:00.096,-0.00427017,0.0128111,-0.00183032,0,0,0,-1.48621,1.56217,-0.0221624,-1.46965,1.54629,-0.0214109
 20:59:00.106,-0.00427017,0.0128111,-0.00183032,0,0,0,-1.48578,1.56214,-0.0221616,-1.46947,1.5463,-0.0214113
 20:59:00.116,-0.00427017,0.0128111,-0.00183032,0,0,0,-1.48595,1.56155,-0.0221463,-1.46959,1.54603,-0.0214044
 20:59:00.126,-0.00427017,0.0128111,-0.00183032,0,0,0,-1.48552,1.56152,-0.0221457,-1.46941,1.54604,-0.0214047
 20:59:00.135,-0.00427017,0.0128111,-0.00183032,0,0,0,-1.4851,1.5615,-0.0221451,-1.46923,1.54606,-0.0214051
 20:59:00.146,-0.00427017,0.0128111,-0.00183032,0,0,0,-1.48468,1.56148,-0.0221445,-1.46905,1.54607,-0.0214054
 20:59:00.156,-0.00427017,0.0128111,-0.00183032,0,0,0,-1.48482,1.56144,-0.0221435,-1.46915,1.54608,-0.0214056
 20:59:00.166,-0.00427017,0.0128111,-0.00183032,0,0,0,-1.48497,1.5614,-0.0221425,-1.46925,1.54608,-0.0214057
 20:59:00.176,-0.00427017,0.0128111,-0.00183032,0,0,0,-1.48569,1.56136,-0.0221415,-1.46964,1.54609,-0.0214058
 20:59:00.186,-0.00427017,0.0128111,-0.00183032,0,0,0,-1.48527,1.56076,-0.022126,-1.46946,1.54581,-0.0213987
 20:59:00.195,-0.00427017,0.0128111,-0.00183032,0,0,0,-1.48485,1.56075,-0.0221256,-1.46928,1.54583,-0.0213991
 20:59:00.207,-0.00427017,0.0128111,-0.00183032,0,0,0,-1.48499,1.56072,-0.0221248,-1.46938,1.54583,-0.0213993
 20:59:00.216,-0.00427017,0.0128111,-0.00183032,0,0,0,-1.48515,1.5607,-0.0221244,-1.46948,1.54585,-0.0213996
 20:59:00.226,-0.00427017,0.0128111,-0.00183032,0,0,0,-1.48473,1.56069,-0.022124,-1.46931,1.54586,-0.0214
 20:59:00.236,-0.00427017,0.0128111,-0.00183032,0,0,0,-1.4843,1.56066,-0.0221232,-1.46912,1.54587,-0.0214002
 20:59:00.246,-0.00427017,0.0128111,-0.00183032,0,0,0,-1.48447,1.56064,-0.0221228,-1.46923,1.54588,-0.0214006
 20:59:00.256,-0.00427017,0.0128111,-0.00183032,0,0,0,-1.48349,1.56122,-0.0221378,-1.46877,1.54619,-0.0214086
 20:59:00.266,-0.00427017,0.0128111,-0.00183032,0,0,0,-1.48424,1.56178,-0.0221522,-1.46917,1.54649,-0.0214162
 20:59:00.276,-0.00427017,0.0128111,-0.00183032,0,0,0,-1.48383,1.56175,-0.0221516,-1.46899,1.5465,-0.0214165
 20:59:00.286,-0.00427017,0.0128111,-0.00183032,0,0,0,-1.484,1.56173,-0.0221509,-1.4691,1.54651,-0.0214168
 20:59:00.296,-0.00427017,0.0128111,-0.00183032,0,0,0,-1.48417,1.5617,-0.0221502,-1.4692,1.54652,-0.0214171
 20:59:00.306,-0.00427017,0.0128111,-0.00183032,0,0,0,-1.48318,1.56225,-0.0221645,-1.46874,1.54682,-0.0214248
 20:59:00.316,-0.00427017,0.0128111,-0.00183032,0,0,0,-1.48394,1.5628,-0.0221787,-1.46914,1.54711,-0.0214324
 20:59:00.326,-0.00427017,0.0128111,-0.00183032,0,0,0,-1.48295,1.56276,-0.0221777,-1.46867,1.54712,-0.0214326
 20:59:00.336,-0.00427017,0.0128111,-0.00183032,0,0,0,-1.48312,1.56386,-0.0222063,-1.46878,1.54769,-0.0214473
 20:59:00.346,-0.00427017,0.0128111,-0.00183032,0,0,0,-1.48328,1.56323,-0.0221897,-1.46888,1.5474,-0.0214399
 20:59:00.356,-0.00427017,0.0128111,-0.00183032,0,0,0,-1.48288,1.56319,-0.0221887,-1.4687,1.54741,-0.0214401
 20:59:00.367,-0.00427017,0.0128111,-0.00183032,0,0,0,-1.48364,1.56315,-0.0221876,-1.4691,1.54741,-0.0214402
 20:59:00.376,-0.00427017,0.0128111,-0.00183032,0,0,0,-1.48323,1.56311,-0.0221866,-1.46892,1.54742,-0.0214404
 20:59:00.386,-0.00427017,0.0128111,-0.00183032,0,0,0,-1.48339,1.56363,-0.0222001,-1.46902,1.5477,-0.0214477
 20:59:00.396,-0.00427017,0.0128111,-0.00183032,0,0,0,-1.48242,1.56301,-0.022184,-1.46856,1.54742,-0.0214405
 20:59:00.407,-0.00427017,0.0128111,-0.00183032,0,0,0,-1.4826,1.56355,-0.022198,-1.46867,1.54771,-0.021448
 20:59:00.416,-0.00427017,0.0128111,-0.00183032,0,0,0,-1.48222,1.5641,-0.0222122,-1.4685,1.54801,-0.0214558
 20:59:00.426,-0.00427017,0.0128111,-0.00183032,0,0,0,-1.48242,1.56406,-0.0222113,-1.46862,1.54802,-0.021456
 20:59:00.436,-0.00427017,0.0128111,-0.00183032,0,0,0,-1.48205,1.56403,-0.0222105,-1.46845,1.54803,-0.0214563
 20:59:00.446,-0.00427017,0.0128111,-0.00183032,0,0,0,-1.48166,1.56398,-0.0222092,-1.46828,1.54804,-0.0214564
 20:59:00.457,-0.00427017,0.0128111,-0.00183032,0,0,0,-1.48127,1.56393,-0.022208,-1.4681,1.54804,-0.0214565
 20:59:00.466,-0.00427017,0.0128111,-0.00183032,0,0,0,-1.48089,1.56389,-0.0222068,-1.46793,1.54804,-0.0214566
 20:59:00.476,-0.00427017,0.0128111,-0.00183032,0,0,0,-1.48052,1.56384,-0.0222056,-1.46776,1.54805,-0.0214567
 20:59:00.486,-0.00427017,0.0128111,-0.00183032,0,0,0,-1.48014,1.56437,-0.0222193,-1.46759,1.54834,-0.0214642
 20:59:00.496,-0.00427017,0.0128111,-0.00183032,0,0,0,-1.48035,1.56489,-0.0222328,-1.46771,1.54862,-0.0214716
 20:59:00.507,-0.00427017,0.0128111,-0.00183032,0,0,0,-1.48057,1.56485,-0.0222318,-1.46783,1.54863,-0.0214718
 20:59:00.516,-0.00427017,0.0128111,-0.00183032,0,0,0,-1.4802,1.5648,-0.0222303,-1.46766,1.54863,-0.0214718
 20:59:00.526,-0.00427017,0.0128111,-0.00183032,0,0,0,-1.4804,1.56474,-0.0222289,-1.46777,1.54863,-0.0214718
 20:59:00.536,-0.00427017,0.0128111,-0.00183032,0,0,0,-1.48061,1.56411,-0.0222125,-1.46789,1.54835,-0.0214644
 20:59:00.546,-0.00427017,0.0128111,-0.00183032,0,0,0,-1.48081,1.56348,-0.0221963,-1.468,1.54806,-0.0214571
 20:59:00.556,-0.00427017,0.0128111,-0.00183032,0,0,0,-1.481,1.56342,-0.0221948,-1.46811,1.54806,-0.021457
 20:59:00.567,-0.00427017,0.0128111,-0.00183032,0,0,0,-1.4812,1.56338,-0.0221937,-1.46822,1.54806,-0.021457
 20:59:00.577,-0.00427017,0.0128111,-0.00183032,0,0,0,-1.48082,1.56334,-0.0221927,-1.46805,1.54806,-0.0214571
 20:59:00.586,-0.00427017,0.0128111,-0.00183032,0,0,0,-1.48044,1.5633,-0.0221916,-1.46788,1.54807,-0.0214572
 20:59:00.596,-0.00427017,0.0128111,-0.00183032,0,0,0,-1.48066,1.56269,-0.022176,-1.468,1.54779,-0.0214501
 20:59:00.607,-0.00427017,0.0128111,-0.00183032,0,0,0,-1.48086,1.56266,-0.0221751,-1.46811,1.5478,-0.0214502
 20:59:00.617,-0.00427017,0.0128111,-0.00183032,0,0,0,-1.48049,1.56205,-0.0221593,-1.46794,1.54752,-0.0214429
 20:59:00.626,-0.00427017,0.0128111,-0.00183032,0,0,0,-1.48012,1.56144,-0.0221436,-1.46777,1.54724,-0.0214357
 20:59:00.636,-0.00427017,0.0128111,-0.00183032,0,0,0,-1.47917,1.562,-0.022158,-1.46731,1.54753,-0.0214433
 20:59:00.647,-0.00427017,0.0128111,-0.00183032,0,0,0,-1.47881,1.56197,-0.0221572,-1.46714,1.54753,-0.0214435
 20:59:00.657,-0.00427017,0.0128111,-0.00183032,0,0,0,-1.47903,1.56194,-0.0221565,-1.46726,1.54754,-0.0214436
 20:59:00.667,-0.00427017,0.0128111,-0.00183032,0,0,0,-1.47869,1.56251,-0.0221711,-1.4671,1.54784,-0.0214514
 20:59:00.677,-0.00427017,0.0128111,-0.00183032,0,0,0,-1.47892,1.56249,-0.0221707,-1.46722,1.54785,-0.0214517
 20:59:00.686,-0.00427017,0.0128111,-0.00183032,0,0,0,-1.47858,1.56247,-0.0221702,-1.46706,1.54786,-0.021452
 20:59:00.696,-0.00427017,0.0128111,-0.00183032,0,0,0,-1.47824,1.56303,-0.0221847,-1.4669,1.54816,-0.0214597
 20:59:00.707,-0.00427017,0.0128111,-0.00183032,0,0,0,-1.47791,1.56301,-0.0221841,-1.46674,1.54817,-0.02146
 20:59:00.716,-0.00427017,0.0128111,-0.00183032,0,0,0,-1.47815,1.56299,-0.0221835,-1.46687,1.54818,-0.0214602
 20:59:00.726,-0.00427017,0.0128111,-0.00183032,0,0,0,-1.4778,1.56295,-0.0221826,-1.46671,1.54818,-0.0214603
 20:59:00.736,-0.00427017,0.0128111,-0.00183032,0,0,0,-1.47744,1.5629,-0.0221812,-1.46653,1.54818,-0.0214602
 20:59:00.746,-0.00427017,0.0128111,-0.00183032,0,0,0,-1.47709,1.56284,-0.0221798,-1.46636,1.54817,-0.0214601
 20:59:00.756,-0.00427017,0.0128111,-0.00183032,0,0,0,-1.47617,1.56281,-0.0221789,-1.46591,1.54817,-0.0214602
 20:59:00.767,-0.00427017,0.0128111,-0.00183032,0,0,0,-1.47584,1.56277,-0.0221779,-1.46575,1.54818,-0.0214603
 20:59:00.777,-0.00427017,0.0128111,-0.00183032,0,0,0,-1.4755,1.56272,-0.0221766,-1.46558,1.54817,-0.0214601
 20:59:00.787,-0.00427017,0.0128111,-0.00183032,0,0,0,-1.47519,1.5627,-0.0221761,-1.46543,1.54818,-0.0214604
 20:59:00.796,-0.00427017,0.0128111,-0.00183032,0,0,0,-1.47489,1.56326,-0.0221905,-1.46528,1.54848,-0.0214681
 20:59:00.806,-0.00427017,0.0128111,-0.00183032,0,0,0,-1.47457,1.56322,-0.0221894,-1.46512,1.54848,-0.0214681
 20:59:00.817,-0.00427017,0.0128111,-0.00183032,0,0,0,-1.47424,1.56316,-0.022188,-1.46496,1.54847,-0.021468
 20:59:00.827,-0.00427017,0.0128111,-0.00183032,0,0,0,-1.47392,1.56311,-0.0221866,-1.46479,1.54847,-0.0214678
 20:59:00.837,-0.00427017,0.0128111,-0.00183032,0,0,0,-1.47417,1.56363,-0.0222,-1.46491,1.54874,-0.021475
 20:59:00.847,-0.00427017,0.0128111,-0.00183032,0,0,0,-1.47386,1.56416,-0.0222137,-1.46476,1.54903,-0.0214824
 20:59:00.857,-0.00427017,0.0128111,-0.00183032,0,0,0,-1.47413,1.56411,-0.0222124,-1.46489,1.54903,-0.0214823
 20:59:00.867,-0.00427017,0.0128111,-0.00183032,0,0,0,-1.4744,1.56406,-0.0222112,-1.46502,1.54902,-0.0214822
 20:59:00.876,-0.00427017,0.0128111,-0.00183032,0,0,0,-1.47468,1.56403,-0.0222103,-1.46515,1.54903,-0.0214824
 20:59:00.887,-0.00427017,0.0128111,-0.00183032,0,0,0,-1.47438,1.56342,-0.0221946,-1.465,1.54875,-0.0214752
 20:59:00.897,-0.00427017,0.0128111,-0.00183032,0,0,0,-1.47464,1.56338,-0.0221935,-1.46513,1.54875,-0.0214751
 20:59:00.907,-0.00427017,0.0128111,-0.00183032,0,0,0,-1.47548,1.56333,-0.0221924,-1.46554,1.54875,-0.0214751
 20:59:00.917,-0.00427017,0.0128111,-0.00183032,0,0,0,-1.47574,1.56272,-0.0221765,-1.46567,1.54847,-0.0214677
 20:59:00.927,-0.00427017,0.0128111,-0.00183032,0,0,0,-1.47601,1.5627,-0.022176,-1.4658,1.54847,-0.0214679
 20:59:00.937,-0.00427017,0.0128111,-0.00183032,0,0,0,-1.47569,1.56268,-0.0221755,-1.46565,1.54848,-0.0214682
 20:59:00.947,-0.00427017,0.0128111,-0.00183032,0,0,0,-1.47594,1.56264,-0.0221746,-1.46577,1.54848,-0.0214682
 20:59:00.957,-0.00427017,0.0128111,-0.00183032,0,0,0,-1.47619,1.56261,-0.0221737,-1.4659,1.54848,-0.0214682
 20:59:00.966,-0.00427017,0.0128111,-0.00183032,0,0,0,-1.47646,1.56317,-0.0221881,-1.46603,1.54878,-0.0214758
 20:59:00.977,-0.00427017,0.0128111,-0.00183032,0,0,0,-1.47728,1.5637,-0.022202,-1.46644,1.54906,-0.0214831
 20:59:00.987,-0.00427017,0.0128111,-0.00183032,0,0,0,-1.47694,1.56424,-0.0222157,-1.46627,1.54935,-0.0214904
 20:59:00.997,-0.00427017,0.0128111,-0.00183032,0,0,0,-1.47718,1.56476,-0.0222293,-1.46639,1.54963,-0.0214977
 20:59:01.007,-0.00427017,0.0128111,-0.00183032,0,0,0,-1.4774,1.56469,-0.0222274,-1.46651,1.54962,-0.0214974
 20:59:01.017,-0.00427017,0.0128111,-0.00183032,0,0,0,-1.47762,1.56462,-0.0222256,-1.46662,1.5496,-0.0214971
 20:59:01.027,-0.00427017,0.0128111,-0.00183032,0,0,0,-1.47787,1.564,-0.0222097,-1.46675,1.54932,-0.0214897
 20:59:01.037,-0.00427017,0.0128111,-0.00183032,0,0,0,-1.47752,1.56396,-0.0222085,-1.46658,1.54932,-0.0214897
 20:59:01.047,-0.00427017,0.0128111,-0.00183032,0,0,0,-1.47775,1.56391,-0.0222072,-1.4667,1.54931,-0.0214896
 20:59:01.057,-0.00427017,0.0128111,-0.00183032,0,0,0,-1.47799,1.56386,-0.022206,-1.46682,1.54931,-0.0214895
 20:59:01.067,-0.00427017,0.0128111,-0.00183032,0,0,0,-1.47822,1.56381,-0.0222048,-1.46694,1.54931,-0.0214894
 20:59:01.078,-0.00427017,0.0128111,-0.00183032,0,0,0,-1.47846,1.56436,-0.0222189,-1.46707,1.5496,-0.0214969
 20:59:01.087,-0.00427017,0.0128111,-0.00183032,0,0,0,-1.47868,1.56431,-0.0222176,-1.46719,1.54959,-0.0214968
 20:59:01.098,-0.00427017,0.0128111,-0.00183032,0,0,0,-1.4789,1.56426,-0.0222163,-1.4673,1.54959,-0.0214966
 20:59:01.107,-0.00427017,0.0128111,-0.00183032,0,0,0,-1.4797,1.56421,-0.022215,-1.46771,1.54958,-0.0214965
 20:59:01.117,-0.00427017,0.0128111,-0.00183032,0,0,0,-1.4799,1.56414,-0.0222133,-1.46781,1.54957,-0.0214961
 20:59:01.127,-0.00427017,0.0128111,-0.00183032,0,0,0,-1.48009,1.56408,-0.0222116,-1.46792,1.54956,-0.0214958
 20:59:01.137,-0.00427017,0.0128111,-0.00183032,0,0,0,-1.47972,1.56403,-0.0222103,-1.46775,1.54956,-0.0214957
 20:59:01.147,-0.00427017,0.0128111,-0.00183032,0,0,0,-1.47992,1.56396,-0.0222087,-1.46786,1.54954,-0.0214954
 20:59:01.157,-0.00427017,0.0128111,-0.00183032,0,0,0,-1.48013,1.56334,-0.0221925,-1.46797,1.54925,-0.0214879
 20:59:01.167,-0.00427017,0.0128111,-0.00183032,0,0,0,-1.48034,1.5633,-0.0221915,-1.46808,1.54925,-0.0214878
 20:59:01.177,-0.00427017,0.0128111,-0.00183032,0,0,0,-1.47995,1.56324,-0.02219,-1.46791,1.54924,-0.0214875
 20:59:01.187,-0.00427017,0.0128111,-0.00183032,0,0,0,-1.47959,1.5632,-0.022189,-1.46773,1.54924,-0.0214875
 20:59:01.197,-0.00427017,0.0128111,-0.00183032,0,0,0,-1.47922,1.56316,-0.0221879,-1.46756,1.54924,-0.0214874
 20:59:01.207,-0.00427017,0.0128111,-0.00183032,0,0,0,-1.47942,1.56253,-0.0221716,-1.46767,1.54894,-0.0214798
 20:59:01.217,-0.00427017,0.0128111,-0.00183032,0,0,0,-1.47962,1.56248,-0.0221703,-1.46778,1.54893,-0.0214795
 20:59:01.227,-0.00427017,0.0128111,-0.00183032,0,0,0,-1.47984,1.56245,-0.0221695,-1.46789,1.54893,-0.0214795
 20:59:01.237,-0.00427017,0.0128111,-0.00183032,0,0,0,-1.48006,1.56243,-0.0221691,-1.46802,1.54894,-0.0214796
 20:59:01.247,-0.00427017,0.0128111,-0.00183032,0,0,0,-1.48029,1.56241,-0.0221686,-1.46814,1.54894,-0.0214798
 20:59:01.257,-0.00427017,0.0128111,-0.00183032,0,0,0,-1.48049,1.56238,-0.0221678,-1.46825,1.54894,-0.0214798
 20:59:01.267,-0.00427017,0.0128111,-0.00183032,0,0,0,-1.48011,1.56233,-0.0221666,-1.46807,1.54893,-0.0214795
 20:59:01.277,-0.00427017,0.0128111,-0.00183032,0,0,0,-1.48031,1.5623,-0.0221658,-1.46818,1.54893,-0.0214795
 20:59:01.287,-0.00427017,0.0128111,-0.00183032,0,0,0,-1.47996,1.56229,-0.0221654,-1.46802,1.54894,-0.0214797
 20:59:01.297,-0.00427017,0.0128111,-0.00183032,0,0,0,-1.4796,1.56285,-0.0221799,-1.46785,1.54923,-0.0214872
 20:59:01.307,-0.00427017,0.0128111,-0.00183032,0,0,0,-1.47924,1.56339,-0.0221938,-1.46768,1.54951,-0.0214946
 20:59:01.318,-0.00427017,0.0128111,-0.00183032,0,0,0,-1.47949,1.56396,-0.0222085,-1.46781,1.54981,-0.0215023
 20:59:01.328,-0.00427017,0.0128111,-0.00183032,0,0,0,-1.47973,1.56452,-0.022223,-1.46794,1.5501,-0.0215099
 20:59:01.338,-0.00427017,0.0128111,-0.00183032,0,0,0,-1.47996,1.56448,-0.022222,-1.46806,1.5501,-0.0215099
 20:59:01.348,-0.00427017,0.0128111,-0.00183032,0,0,0,-1.48018,1.56445,-0.0222211,-1.46818,1.55011,-0.0215099
 20:59:01.357,-0.00427017,0.0128111,-0.00183032,0,0,0,-1.47983,1.56441,-0.0222201,-1.46802,1.55011,-0.0215099
 20:59:01.367,-0.00427017,0.0128111,-0.00183032,0,0,0,-1.47946,1.56436,-0.0222188,-1.46784,1.5501,-0.0215098
 20:59:01.377,-0.00427017,0.0128111,-0.00183032,0,0,0,-1.47911,1.56432,-0.0222179,-1.46768,1.5501,-0.0215098
 20:59:01.388,-0.00427017,0.0128111,-0.00183032,0,0,0,-1.47875,1.56427,-0.0222165,-1.46751,1.55009,-0.0215096
 20:59:01.397,-0.00427017,0.0128111,-0.00183032,0,0,0,-1.47896,1.5642,-0.0222148,-1.46762,1.55008,-0.0215092
 20:59:01.407,-0.00427017,0.0128111,-0.00183032,0,0,0,-1.47916,1.56471,-0.022228,-1.46773,1.55035,-0.0215162
 20:59:01.417,-0.00427017,0.0128111,-0.00183032,0,0,0,-1.4794,1.56467,-0.022227,-1.46785,1.55035,-0.0215162
 20:59:01.428,-0.00427017,0.0128111,-0.00183032,0,0,0,-1.47961,1.56404,-0.0222107,-1.46796,1.55005,-0.0215086
 20:59:01.437,-0.00427017,0.0128111,-0.00183032,0,0,0,-1.47925,1.56342,-0.0221945,-1.46779,1.54976,-0.021501
 20:59:01.447,-0.00427017,0.0128111,-0.00183032,0,0,0,-1.47948,1.56339,-0.0221938,-1.46791,1.54976,-0.0215011
 20:59:01.458,-0.00427017,0.0128111,-0.00183032,0,0,0,-1.47971,1.56336,-0.0221932,-1.46803,1.54977,-0.0215011
 20:59:01.467,-0.00427017,0.0128111,-0.00183032,0,0,0,-1.47994,1.56391,-0.0222074,-1.46816,1.55005,-0.0215086
 20:59:01.477,-0.00427017,0.0128111,-0.00183032,0,0,0,-1.48018,1.5639,-0.022207,-1.46828,1.55006,-0.0215088
 20:59:01.488,-0.00427017,0.0128111,-0.00183032,0,0,0,-1.4804,1.56387,-0.0222062,-1.4684,1.55006,-0.0215088
