时间,pitch,roll,yaw,gyroX_bias,gyroY_bias,gyroZ_bias,
 20:58:49.354,-0.00774738,0.00803432,-5.46842e-07,0,0,0
 20:58:49.362,-0.0148418,0.0156979,-2.06782e-06,0,0,0
 20:58:49.372,-0.0227561,0.023608,-4.68013e-06,0,0,0
 20:58:49.383,-0.0300611,0.0311941,-8.20013e-06,0,0,0
 20:58:49.393,-0.037607,0.0387344,-1.26821e-05,0,0,0
 20:58:49.403,-0.0448306,0.0462374,-1.81162e-05,0,0,0
 20:58:49.413,-0.0520256,0.053996,-2.47188e-05,0,0,0
 20:58:49.422,-0.0591848,0.061716,-3.22622e-05,0,0,0
 20:58:49.432,-0.0660163,0.0691049,-4.03903e-05,0,0,0
 20:58:49.442,-0.073391,0.0767496,-4.97526e-05,0,0,0
 20:58:49.452,-0.0804515,0.0843647,-6.00455e-05,0,0,0
 20:58:49.462,-0.0874771,0.0916564,-7.08026e-05,0,0,0
 20:58:49.472,-0.0941824,0.0989121,-8.23832e-05,0,0,0
 20:58:49.482,-0.101425,0.106417,-9.52788e-05,0,0,0
 20:58:49.492,-0.108632,0.113599,-0.00010853,0,0,0
 20:58:49.503,-0.115525,0.120753,-0.000122618,0,0,0
 20:58:49.513,-0.122376,0.127864,-0.000137479,0,0,0
 20:58:49.523,-0.1289,0.135217,-0.000153715,0,0,0
 20:58:49.533,-0.13597,0.142541,-0.000170756,0,0,0
 20:58:49.543,-0.142419,0.149812,-0.000188545,0,0,0
 20:58:49.553,-0.149129,0.157056,-0.000207099,0,0,0
 20:58:49.563,-0.155813,0.164272,-0.000226431,0,0,0
 20:58:49.573,-0.162764,0.171182,-0.000245767,0,0,0
 20:58:49.583,-0.169396,0.178343,-0.000266667,0,0,0
 20:58:49.593,-0.175979,0.185168,-0.000287372,0,0,0
 20:58:49.603,-0.182529,0.191958,-0.000308758,0,0,0
 20:58:49.613,-0.189047,0.198715,-0.000330813,0,0,0
 20:58:49.623,-0.195517,0.205992,-0.000355404,0,0,0
 20:58:49.632,-0.201963,0.212956,-0.000379724,0,0,0
 20:58:49.645,-0.208661,0.2196,-0.000403687,0,0,0
 20:58:49.652,-0.215319,0.226204,-0.000428278,0,0,0
 20:58:49.662,-0.221659,0.232775,-0.000453501,0,0,0
 20:58:49.673,-0.227967,0.239313,-0.000479326,0,0,0
 20:58:49.683,-0.234243,0.246103,-0.000506901,0,0,0
 20:58:49.693,-0.240489,0.25286,-0.000535083,0,0,0
 20:58:49.703,-0.246718,0.259599,-0.000563931,0,0,0
 20:58:49.713,-0.252346,0.266305,-0.000593344,0,0,0
 20:58:49.723,-0.258238,0.272986,-0.000623318,0,0,0
 20:58:49.733,-0.264094,0.279625,-0.000653791,0,0,0
 20:58:49.743,-0.270205,0.286231,-0.000684801,0,0,0
 20:58:49.753,-0.275994,0.292796,-0.000716311,0,0,0
 20:58:49.763,-0.281762,0.299337,-0.000748368,0,0,0
 20:58:49.773,-0.287778,0.305837,-0.000780892,0,0,0
 20:58:49.783,-0.293765,0.312305,-0.000813937,0,0,0
 20:58:49.793,-0.299714,0.319017,-0.000848939,0,0,0
 20:58:49.803,-0.305633,0.325411,-0.000882945,0,0,0
 20:58:49.813,-0.311531,0.331496,-0.000915934,0,0,0
 20:58:49.823,-0.317392,0.337828,-0.000950921,0,0,0
 20:58:49.833,-0.323224,0.344128,-0.000986381,0,0,0
 20:58:49.843,-0.329027,0.350113,-0.00102067,0,0,0
 20:58:49.853,-0.334523,0.356075,-0.00105543,0,0,0
 20:58:49.863,-0.340285,0.362301,-0.00109234,0,0,0
 20:58:49.873,-0.345732,0.368211,-0.00112796,0,0,0
 20:58:49.883,-0.351438,0.374376,-0.00116572,0,0,0
 20:58:49.893,-0.357116,0.380511,-0.00120391,0,0,0
 20:58:49.903,-0.362757,0.386608,-0.00124247,0,0,0
 20:58:49.913,-0.368664,0.392682,-0.00128149,0,0,0
 20:58:49.923,-0.374263,0.398734,-0.00132099,0,0,0
 20:58:49.933,-0.379819,0.404739,-0.00136078,0,0,0
 20:58:49.943,-0.385063,0.410715,-0.00140094,0,0,0
 20:58:49.953,-0.390558,0.416368,-0.00143946,0,0,0
 20:58:49.963,-0.396026,0.421993,-0.00147832,0,0,0
 20:58:49.973,-0.401466,0.427875,-0.00151953,0,0,0
 20:58:49.983,-0.40688,0.433728,-0.0015611,0,0,0
 20:58:49.993,-0.412266,0.439551,-0.00160301,0,0,0
 20:58:50.003,-0.417626,0.445346,-0.00164526,0,0,0
 20:58:50.013,-0.422959,0.451112,-0.00168784,0,0,0
 20:58:50.023,-0.428566,0.456579,-0.00172873,0,0,0
 20:58:50.033,-0.43386,0.462305,-0.00177211,0,0,0
 20:58:50.043,-0.439127,0.468003,-0.00181581,0,0,0
 20:58:50.053,-0.444354,0.473656,-0.00185969,0,0,0
 20:58:50.064,-0.449831,0.479273,-0.0019038,0,0,0
 20:58:50.073,-0.455289,0.484585,-0.00194603,0,0,0
 20:58:50.083,-0.460442,0.490163,-0.00199091,0,0,0
 20:58:50.093,-0.465562,0.495421,-0.00203368,0,0,0
 20:58:50.103,-0.470664,0.500661,-0.00207677,0,0,0
 20:58:50.113,-0.475741,0.505875,-0.00212011,0,0,0
 20:58:50.123,-0.480792,0.511348,-0.0021661,0,0,0
 20:58:50.133,-0.485819,0.516793,-0.00221235,0,0,0
 20:58:50.143,-0.490812,0.522204,-0.00225877,0,0,0
 20:58:50.153,-0.495781,0.527587,-0.00230543,0,0,0
 20:58:50.163,-0.500441,0.532944,-0.00235233,0,0,0
 20:58:50.173,-0.505077,0.538274,-0.00239942,0,0,0
 20:58:50.183,-0.50999,0.543309,-0.00244431,0,0,0
 20:58:50.193,-0.514871,0.548595,-0.00249191,0,0,0
 20:58:50.203,-0.519728,0.553856,-0.00253973,0,0,0
 20:58:50.213,-0.52456,0.55909,-0.00258775,0,0,0
 20:58:50.223,-0.529369,0.564013,-0.00263332,0,0,0
 20:58:50.234,-0.534153,0.568911,-0.00267908,0,0,0
 20:58:50.243,-0.538907,0.574062,-0.00272765,0,0,0
 20:58:50.253,-0.543636,0.579188,-0.00277639,0,0,0
 20:58:50.263,-0.54835,0.584296,-0.0028254,0,0,0
 20:58:50.273,-0.552755,0.589379,-0.00287458,0,0,0
 20:58:50.283,-0.557423,0.594437,-0.00292391,0,0,0
 20:58:50.293,-0.56206,0.599461,-0.00297332,0,0,0
 20:58:50.304,-0.56696,0.60446,-0.0030229,0,0,0
 20:58:50.314,-0.571835,0.609434,-0.00307266,0,0,0
 20:58:50.324,-0.576408,0.614392,-0.00312267,0,0,0
 20:58:50.334,-0.580966,0.619048,-0.00317,0,0,0
 20:58:50.344,-0.585501,0.62368,-0.00321747,0,0,0
 20:58:50.354,-0.589729,0.62829,-0.00326506,0,0,0
 20:58:50.364,-0.594213,0.632869,-0.00331268,0,0,0
 20:58:50.374,-0.59896,0.63771,-0.00336342,0,0,0
 20:58:50.383,-0.603376,0.642503,-0.00341404,0,0,0
 20:58:50.394,-0.607777,0.64728,-0.00346488,0,0,0
 20:58:50.404,-0.612164,0.652041,-0.00351591,0,0,0
 20:58:50.414,-0.616814,0.656494,-0.00356396,0,0,0
 20:58:50.424,-0.621172,0.66094,-0.00361231,0,0,0
 20:58:50.434,-0.625777,0.665349,-0.00366059,0,0,0
 20:58:50.444,-0.630074,0.670021,-0.00371213,0,0,0
 20:58:50.454,-0.63435,0.674384,-0.00376059,0,0,0
 20:58:50.464,-0.638335,0.678742,-0.00380932,0,0,0
 20:58:50.473,-0.642862,0.683069,-0.00385801,0,0,0
 20:58:50.484,-0.647367,0.687375,-0.0039068,0,0,0
 20:58:50.494,-0.651572,0.691954,-0.00395905,0,0,0
 20:58:50.504,-0.655757,0.696224,-0.00400808,0,0,0
 20:58:50.514,-0.65992,0.700472,-0.00405718,0,0,0
 20:58:50.524,-0.664055,0.705263,-0.00411291,0,0,0
 20:58:50.534,-0.668462,0.709752,-0.00416545,0,0,0
 20:58:50.544,-0.672855,0.713655,-0.00421142,0,0,0
 20:58:50.554,-0.676949,0.717547,-0.00425755,0,0,0
 20:58:50.564,-0.681276,0.721958,-0.00431018,0,0,0
 20:58:50.574,-0.685305,0.726071,-0.00435955,0,0,0
 20:58:50.584,-0.689599,0.730449,-0.00441242,0,0,0
 20:58:50.594,-0.693586,0.734805,-0.00446535,0,0,0
 20:58:50.604,-0.697554,0.738854,-0.00451483,0,0,0
 20:58:50.614,-0.701509,0.742605,-0.00456092,0,0,0
 20:58:50.624,-0.705437,0.746901,-0.00461402,0,0,0
 20:58:50.634,-0.709631,0.751175,-0.00466714,0,0,0
 20:58:50.644,-0.713511,0.755419,-0.00472022,0,0,0
 20:58:50.654,-0.717379,0.759651,-0.00477341,0,0,0
 20:58:50.664,-0.720958,0.763878,-0.00482684,0,0,0
 20:58:50.674,-0.724797,0.767505,-0.00487289,0,0,0
 20:58:50.684,-0.728617,0.771399,-0.0049226,0,0,0
 20:58:50.694,-0.732132,0.775274,-0.00497233,0,0,0
 20:58:50.704,-0.735629,0.77913,-0.00502206,0,0,0
 20:58:50.714,-0.739102,0.783243,-0.00507537,0,0,0
 20:58:50.724,-0.742843,0.787337,-0.00512867,0,0,0
 20:58:50.734,-0.746558,0.791402,-0.00518186,0,0,0
 20:58:50.744,-0.75054,0.795161,-0.00523129,0,0,0
 20:58:50.754,-0.754509,0.798625,-0.00527705,0,0,0
 20:58:50.764,-0.757881,0.802349,-0.00532653,0,0,0
 20:58:50.774,-0.761236,0.806339,-0.0053798,0,0,0
 20:58:50.784,-0.764574,0.810594,-0.00543687,0,0,0
 20:58:50.795,-0.767888,0.81482,-0.00549379,0,0,0
 20:58:50.805,-0.771201,0.818471,-0.00554317,0,0,0
 20:58:50.814,-0.774782,0.822104,-0.0055925,0,0,0
 20:58:50.824,-0.778353,0.825441,-0.00563801,0,0,0
 20:58:50.834,-0.781914,0.829055,-0.00568754,0,0,0
 20:58:50.844,-0.785164,0.832929,-0.00574088,0,0,0
 20:58:50.854,-0.788398,0.836783,-0.00579418,0,0,0
 20:58:50.864,-0.791615,0.840618,-0.00584744,0,0,0
 20:58:50.874,-0.794824,0.844157,-0.00589676,0,0,0
 20:58:50.884,-0.798295,0.847955,-0.00594992,0,0,0
 20:58:50.894,-0.801749,0.851449,-0.00599903,0,0,0
 20:58:50.904,-0.804908,0.854934,-0.00604821,0,0,0
 20:58:50.914,-0.80805,0.858687,-0.00610141,0,0,0
 20:58:50.925,-0.81117,0.862413,-0.00615444,0,0,0
 20:58:50.935,-0.81456,0.86612,-0.00620739,0,0,0
 20:58:50.945,-0.817941,0.869532,-0.00625631,0,0,0
 20:58:50.954,-0.821304,0.872926,-0.00630518,0,0,0
 20:58:50.964,-0.824929,0.876296,-0.00635389,0,0,0
 20:58:50.974,-0.828243,0.879927,-0.00640662,0,0,0
 20:58:50.984,-0.83154,0.883824,-0.00646347,0,0,0
 20:58:50.994,-0.834821,0.887702,-0.00652026,0,0,0
 20:58:51.004,-0.838093,0.891284,-0.00657291,0,0,0
 20:58:51.015,-0.841349,0.894277,-0.00661704,0,0,0
 20:58:51.025,-0.844581,0.897533,-0.00666525,0,0,0
 20:58:51.035,-0.847789,0.901335,-0.00672179,0,0,0
 20:58:51.045,-0.850697,0.904833,-0.00677401,0,0,0
 20:58:51.055,-0.854152,0.908305,-0.006826,0,0,0
 20:58:51.064,-0.857043,0.911213,-0.00686971,0,0,0
 20:58:51.075,-0.860205,0.914107,-0.00691334,0,0,0
 20:58:51.085,-0.863336,0.917257,-0.00696102,0,0,0
 20:58:51.095,-0.866443,0.920667,-0.00701285,0,0,0
 20:58:51.105,-0.869543,0.924069,-0.00706473,0,0,0
 20:58:51.115,-0.872342,0.927454,-0.00711655,0,0,0
 20:58:51.125,-0.875705,0.930829,-0.00716838,0,0,0
 20:58:51.135,-0.878481,0.933903,-0.00721576,0,0,0
 20:58:51.145,-0.881528,0.936962,-0.00726304,0,0,0
 20:58:51.155,-0.884275,0.940006,-0.00731026,0,0,0
 20:58:51.165,-0.887294,0.943319,-0.00736183,0,0,0
 20:58:51.174,-0.890297,0.946616,-0.00741333,0,0,0
 20:58:51.185,-0.893286,0.950182,-0.00746922,0,0,0
 20:58:51.195,-0.896544,0.95373,-0.00752501,0,0,0
 20:58:51.205,-0.899223,0.956984,-0.00757636,0,0,0
 20:58:51.215,-0.902168,0.959928,-0.00762293,0,0,0
 20:58:51.225,-0.905105,0.962865,-0.00766955,0,0,0
 20:58:51.235,-0.908027,0.965787,-0.00771609,0,0,0
 20:58:51.245,-0.910642,0.968972,-0.007767,0,0,0
 20:58:51.255,-0.913529,0.972142,-0.0078178,0,0,0
 20:58:51.265,-0.916395,0.975003,-0.00786378,0,0,0
 20:58:51.275,-0.919254,0.977857,-0.00790979,0,0,0
 20:58:51.285,-0.922098,0.980697,-0.00795572,0,0,0
 20:58:51.295,-0.924928,0.983808,-0.00800621,0,0,0
 20:58:51.305,-0.927744,0.986619,-0.00805194,0,0,0
 20:58:51.315,-0.930539,0.989407,-0.00809746,0,0,0
 20:58:51.325,-0.933028,0.99189,-0.00813809,0,0,0
 20:58:51.335,-0.935796,0.994652,-0.00818343,0,0,0
 20:58:51.345,-0.938266,0.997401,-0.00822869,0,0,0
 20:58:51.355,-0.941016,0.999859,-0.00826923,0,0,0
 20:58:51.365,-0.943744,1.00258,-0.00831431,0,0,0
 20:58:51.375,-0.946174,1.00558,-0.00836404,0,0,0
 20:58:51.385,-0.948885,1.00856,-0.00841378,0,0,0
 20:58:51.395,-0.951582,1.01125,-0.00845864,0,0,0
 20:58:51.405,-0.954258,1.01392,-0.00850326,0,0,0
 20:58:51.415,-0.956928,1.01686,-0.00855273,0,0,0
 20:58:51.425,-0.959585,1.01951,-0.00859727,0,0,0
 20:58:51.435,-0.962221,1.02213,-0.00864158,0,0,0
 20:58:51.445,-0.964852,1.02504,-0.00869076,0,0,0
 20:58:51.455,-0.967469,1.02821,-0.00874469,0,0,0
 20:58:51.465,-0.970073,1.03109,-0.00879363,0,0,0
 20:58:51.475,-0.972672,1.03396,-0.00884259,0,0,0
 20:58:51.485,-0.975544,1.03653,-0.00888652,0,0,0
 20:58:51.495,-0.977837,1.03938,-0.00893545,0,0,0
 20:58:51.506,-0.980398,1.0422,-0.00898409,0,0,0
 20:58:51.516,-0.982945,1.04502,-0.00903262,0,0,0
 20:58:51.525,-0.98548,1.0481,-0.00908599,0,0,0
 20:58:51.535,-0.988288,1.0506,-0.00912928,0,0,0
 20:58:51.545,-0.990518,1.05281,-0.00916765,0,0,0
 20:58:51.556,-0.993309,1.05529,-0.00921089,0,0,0
 20:58:51.566,-0.995784,1.05775,-0.00925377,0,0,0
 20:58:51.576,-0.99824,1.06047,-0.00930142,0,0,0
 20:58:51.586,-1.00068,1.06317,-0.00934895,0,0,0
 20:58:51.596,-1.00312,1.06586,-0.00939636,0,0,0
 20:58:51.606,-1.00526,1.06827,-0.00943875,0,0,0
 20:58:51.616,-1.00767,1.07093,-0.00948592,0,0,0
 20:58:51.626,-1.01006,1.07359,-0.00953298,0,0,0
 20:58:51.635,-1.01216,1.07594,-0.0095747,0,0,0
 20:58:51.645,-1.01452,1.07856,-0.00962138,0,0,0
 20:58:51.656,-1.0166,1.08117,-0.00966808,0,0,0
 20:58:51.665,-1.01924,1.08349,-0.00970951,0,0,0
 20:58:51.675,-1.02158,1.0858,-0.00975086,0,0,0
 20:58:51.685,-1.02363,1.0881,-0.00979225,0,0,0
 20:58:51.695,-1.02624,1.09068,-0.00983863,0,0,0
 20:58:51.705,-1.02856,1.09297,-0.0098799,0,0,0
 20:58:51.715,-1.03115,1.09524,-0.00992103,0,0,0
 20:58:51.725,-1.03316,1.0975,-0.0099621,0,0,0
 20:58:51.735,-1.03544,1.10004,-0.0100081,0,0,0
 20:58:51.745,-1.03743,1.10228,-0.0100489,0,0,0
 20:58:51.755,-1.03968,1.10478,-0.0100946,0,0,0
 20:58:51.766,-1.04193,1.10728,-0.0101402,0,0,0
 20:58:51.776,-1.04388,1.10976,-0.0101857,0,0,0
 20:58:51.785,-1.04611,1.11223,-0.0102312,0,0,0
 20:58:51.795,-1.04861,1.1147,-0.0102766,0,0,0
 20:58:51.805,-1.05083,1.11687,-0.0103167,0,0,0
 20:58:51.815,-1.05303,1.11904,-0.0103566,0,0,0
 20:58:51.825,-1.05523,1.12119,-0.0103965,0,0,0
 20:58:51.835,-1.0574,1.12361,-0.0104414,0,0,0
 20:58:51.845,-1.05957,1.12602,-0.0104862,0,0,0
 20:58:51.856,-1.06142,1.12812,-0.0105253,0,0,0
 20:58:51.866,-1.06356,1.13022,-0.0105645,0,0,0
 20:58:51.876,-1.06569,1.1323,-0.0106034,0,0,0
 20:58:51.886,-1.06808,1.13436,-0.0106421,0,0,0
 20:58:51.896,-1.0699,1.13642,-0.0106808,0,0,0
 20:58:51.906,-1.07228,1.13876,-0.0107247,0,0,0
 20:58:51.916,-1.07437,1.14081,-0.0107633,0,0,0
 20:58:51.926,-1.07645,1.14313,-0.0108072,0,0,0
 20:58:51.936,-1.07853,1.14545,-0.0108511,0,0,0
 20:58:51.946,-1.0806,1.14747,-0.0108895,0,0,0
 20:58:51.956,-1.08293,1.14947,-0.0109275,0,0,0
 20:58:51.966,-1.08467,1.15118,-0.0109599,0,0,0
 20:58:51.976,-1.0864,1.15343,-0.011003,0,0,0
 20:58:51.986,-1.08842,1.15568,-0.011046,0,0,0
 20:58:51.996,-1.0907,1.15763,-0.0110832,0,0,0
 20:58:52.006,-1.09268,1.15957,-0.0111204,0,0,0
 20:58:52.016,-1.09465,1.16178,-0.0111629,0,0,0
 20:58:52.026,-1.09633,1.16427,-0.0112109,0,0,0
 20:58:52.036,-1.09856,1.16617,-0.0112474,0,0,0
 20:58:52.046,-1.1005,1.16777,-0.0112783,0,0,0
 20:58:52.056,-1.10244,1.16994,-0.0113204,0,0,0
 20:58:52.066,-1.10437,1.17183,-0.0113569,0,0,0
 20:58:52.076,-1.10629,1.17399,-0.0113989,0,0,0
 20:58:52.086,-1.10849,1.17614,-0.0114407,0,0,0
 20:58:52.097,-1.11011,1.17799,-0.0114768,0,0,0
 20:58:52.106,-1.1123,1.18041,-0.0115241,0,0,0
 20:58:52.116,-1.11419,1.18254,-0.0115657,0,0,0
 20:58:52.126,-1.11606,1.18436,-0.0116014,0,0,0
 20:58:52.136,-1.11821,1.18646,-0.0116426,0,0,0
 20:58:52.146,-1.12006,1.18825,-0.0116778,0,0,0
 20:58:52.157,-1.1219,1.19032,-0.0117186,0,0,0
 20:58:52.166,-1.12344,1.1921,-0.0117536,0,0,0
 20:58:52.176,-1.12525,1.19386,-0.0117884,0,0,0
 20:58:52.186,-1.12706,1.19561,-0.011823,0,0,0
 20:58:52.197,-1.12885,1.19763,-0.0118631,0,0,0
 20:58:52.206,-1.13066,1.19967,-0.0119036,0,0,0
 20:58:52.216,-1.13245,1.2017,-0.0119439,0,0,0
 20:58:52.226,-1.13424,1.20372,-0.0119841,0,0,0
 20:58:52.236,-1.13602,1.20572,-0.012024,0,0,0
 20:58:52.246,-1.13779,1.20743,-0.0120582,0,0,0
 20:58:52.257,-1.13956,1.20914,-0.0120925,0,0,0
 20:58:52.266,-1.14133,1.21085,-0.0121267,0,0,0
 20:58:52.276,-1.14306,1.21253,-0.0121604,0,0,0
 20:58:52.286,-1.1448,1.2145,-0.0121999,0,0,0
 20:58:52.296,-1.14653,1.21645,-0.0122393,0,0,0
 20:58:52.306,-1.14797,1.21841,-0.0122787,0,0,0
 20:58:52.317,-1.14969,1.22006,-0.012312,0,0,0
 20:58:52.326,-1.15139,1.22169,-0.0123451,0,0,0
 20:58:52.337,-1.15307,1.22361,-0.0123838,0,0,0
 20:58:52.347,-1.15475,1.22522,-0.0124164,0,0,0
 20:58:52.357,-1.15641,1.22682,-0.0124489,0,0,0
 20:58:52.367,-1.15779,1.2287,-0.0124873,0,0,0
 20:58:52.377,-1.15917,1.2303,-0.0125199,0,0,0
 20:58:52.386,-1.16055,1.23219,-0.0125583,0,0,0
 20:58:52.396,-1.16192,1.23406,-0.0125965,0,0,0
 20:58:52.406,-1.16355,1.23591,-0.0126343,0,0,0
 20:58:52.417,-1.1649,1.23746,-0.0126661,0,0,0
 20:58:52.427,-1.16652,1.23902,-0.012698,0,0,0
 20:58:52.436,-1.16815,1.24086,-0.0127356,0,0,0
 20:58:52.446,-1.16947,1.24267,-0.012773,0,0,0
 20:58:52.457,-1.17107,1.24477,-0.0128162,0,0,0
 20:58:52.466,-1.17267,1.24658,-0.0128534,0,0,0
 20:58:52.477,-1.17397,1.24808,-0.0128844,0,0,0
 20:58:52.487,-1.17584,1.24987,-0.0129213,0,0,0
 20:58:52.497,-1.17713,1.25165,-0.0129581,0,0,0
 20:58:52.507,-1.1787,1.25342,-0.0129948,0,0,0
 20:58:52.517,-1.18026,1.25519,-0.0130313,0,0,0
 20:58:52.527,-1.18209,1.25694,-0.0130677,0,0,0
 20:58:52.537,-1.18392,1.25839,-0.0130978,0,0,0
 20:58:52.546,-1.18545,1.25984,-0.013128,0,0,0
 20:58:52.556,-1.18698,1.26129,-0.0131581,0,0,0
 20:58:52.566,-1.18849,1.26272,-0.013188,0,0,0
 20:58:52.576,-1.18971,1.26443,-0.0132237,0,0,0
 20:58:52.586,-1.19149,1.26584,-0.0132532,0,0,0
 20:58:52.597,-1.1927,1.26726,-0.0132829,0,0,0
 20:58:52.606,-1.19447,1.26866,-0.0133122,0,0,0
 20:58:52.616,-1.19566,1.26976,-0.0133355,0,0,0
 20:58:52.627,-1.19684,1.27143,-0.0133705,0,0,0
 20:58:52.637,-1.19859,1.27309,-0.0134055,0,0,0
 20:58:52.647,-1.19976,1.27475,-0.0134404,0,0,0
 20:58:52.656,-1.20149,1.27611,-0.0134691,0,0,0
 20:58:52.666,-1.20264,1.27718,-0.0134916,0,0,0
 20:58:52.677,-1.20406,1.27852,-0.01352,0,0,0
 20:58:52.687,-1.20577,1.28014,-0.0135543,0,0,0
 20:58:52.697,-1.20689,1.28147,-0.0135824,0,0,0
 20:58:52.707,-1.20859,1.28308,-0.0136167,0,0,0
 20:58:52.717,-1.20972,1.28441,-0.013645,0,0,0
 20:58:52.727,-1.21139,1.28601,-0.0136788,0,0,0
 20:58:52.737,-1.21278,1.28731,-0.0137066,0,0,0
 20:58:52.747,-1.21418,1.28891,-0.0137408,0,0,0
 20:58:52.757,-1.21528,1.2905,-0.0137747,0,0,0
 20:58:52.767,-1.21665,1.29207,-0.0138082,0,0,0
 20:58:52.777,-1.21773,1.29335,-0.0138355,0,0,0
 20:58:52.786,-1.21909,1.29462,-0.0138627,0,0,0
 20:58:52.797,-1.22044,1.29588,-0.0138898,0,0,0
 20:58:52.806,-1.22177,1.29712,-0.0139164,0,0,0
 20:58:52.817,-1.22281,1.29865,-0.0139491,0,0,0
 20:58:52.827,-1.22413,1.29987,-0.0139755,0,0,0
 20:58:52.837,-1.22517,1.3011,-0.014002,0,0,0
 20:58:52.847,-1.22648,1.30261,-0.0140345,0,0,0
 20:58:52.857,-1.22779,1.30383,-0.0140607,0,0,0
 20:58:52.867,-1.22881,1.30505,-0.014087,0,0,0
 20:58:52.877,-1.2301,1.30624,-0.0141129,0,0,0
 20:58:52.887,-1.23111,1.30773,-0.014145,0,0,0
 20:58:52.897,-1.23268,1.3092,-0.0141769,0,0,0
 20:58:52.907,-1.23367,1.31039,-0.0142026,0,0,0
 20:58:52.917,-1.23465,1.31185,-0.0142343,0,0,0
 20:58:52.927,-1.23593,1.31332,-0.0142661,0,0,0
 20:58:52.938,-1.23691,1.31477,-0.0142977,0,0,0
 20:58:52.947,-1.23818,1.31594,-0.014323,0,0,0
 20:58:52.957,-1.23915,1.31709,-0.0143482,0,0,0
 20:58:52.968,-1.2404,1.31853,-0.0143796,0,0,0
 20:58:52.977,-1.24164,1.31967,-0.0144044,0,0,0
 20:58:52.987,-1.24287,1.3208,-0.014429,0,0,0
 20:58:52.998,-1.24381,1.32193,-0.0144537,0,0,0
 20:58:53.007,-1.24532,1.32333,-0.0144844,0,0,0
 20:58:53.018,-1.24626,1.32445,-0.0145089,0,0,0
 20:58:53.027,-1.24747,1.32557,-0.0145333,0,0,0
 20:58:53.038,-1.24868,1.32668,-0.0145577,0,0,0
 20:58:53.047,-1.24989,1.32778,-0.0145819,0,0,0
 20:58:53.058,-1.25136,1.32888,-0.0146059,0,0,0
 20:58:53.068,-1.25226,1.32995,-0.0146296,0,0,0
 20:58:53.077,-1.25344,1.33132,-0.0146596,0,0,0
 20:58:53.087,-1.25433,1.3324,-0.0146835,0,0,0
 20:58:53.097,-1.25579,1.33376,-0.0147135,0,0,0
 20:58:53.107,-1.25697,1.33484,-0.0147372,0,0,0
 20:58:53.117,-1.25813,1.3359,-0.0147607,0,0,0
 20:58:53.127,-1.25929,1.33725,-0.0147905,0,0,0
 20:58:53.137,-1.26073,1.33858,-0.0148201,0,0,0
 20:58:53.148,-1.26187,1.33991,-0.0148494,0,0,0
 20:58:53.157,-1.26329,1.34095,-0.0148724,0,0,0
 20:58:53.167,-1.26442,1.34198,-0.0148953,0,0,0
 20:58:53.177,-1.26526,1.34329,-0.0149246,0,0,0
 20:58:53.187,-1.26639,1.3446,-0.0149536,0,0,0
 20:58:53.198,-1.26722,1.3459,-0.0149826,0,0,0
 20:58:53.208,-1.26833,1.3472,-0.0150115,0,0,0
 20:58:53.217,-1.26915,1.34791,-0.0150274,0,0,0
 20:58:53.228,-1.27026,1.3492,-0.0150561,0,0,0
 20:58:53.237,-1.27165,1.3502,-0.0150784,0,0,0
 20:58:53.248,-1.27245,1.35147,-0.0151069,0,0,0
 20:58:53.257,-1.27355,1.35275,-0.0151354,0,0,0
 20:58:53.267,-1.27463,1.35401,-0.0151638,0,0,0
 20:58:53.277,-1.27571,1.35498,-0.0151855,0,0,0
 20:58:53.287,-1.27678,1.35595,-0.0152071,0,0,0
 20:58:53.297,-1.27784,1.35719,-0.015235,0,0,0
 20:58:53.307,-1.2789,1.35814,-0.0152562,0,0,0
 20:58:53.318,-1.27966,1.35908,-0.0152774,0,0,0
 20:58:53.328,-1.28042,1.3603,-0.0153048,0,0,0
 20:58:53.337,-1.28146,1.36151,-0.0153322,0,0,0
 20:58:53.348,-1.28278,1.36272,-0.0153594,0,0,0
 20:58:53.357,-1.2838,1.36364,-0.0153801,0,0,0
 20:58:53.367,-1.28483,1.36456,-0.0154008,0,0,0
 20:58:53.378,-1.28586,1.36576,-0.015428,0,0,0
 20:58:53.387,-1.28688,1.36695,-0.015455,0,0,0
 20:58:53.398,-1.28789,1.36814,-0.0154819,0,0,0
 20:58:53.408,-1.2889,1.36933,-0.0155087,0,0,0
 20:58:53.417,-1.29018,1.3705,-0.0155352,0,0,0
 20:58:53.427,-1.29117,1.37137,-0.0155549,0,0,0
 20:58:53.438,-1.29215,1.37253,-0.0155813,0,0,0
 20:58:53.447,-1.29313,1.37368,-0.0156075,0,0,0
 20:58:53.458,-1.29412,1.37484,-0.0156337,0,0,0
 20:58:53.468,-1.29537,1.37598,-0.0156597,0,0,0
 20:58:53.478,-1.29605,1.37683,-0.0156791,0,0,0
 20:58:53.488,-1.2973,1.37768,-0.0156984,0,0,0
 20:58:53.498,-1.29798,1.37853,-0.0157178,0,0,0
 20:58:53.507,-1.29922,1.37966,-0.0157436,0,0,0
 20:58:53.518,-1.30018,1.38079,-0.0157693,0,0,0
 20:58:53.527,-1.30112,1.38191,-0.0157949,0,0,0
 20:58:53.538,-1.30235,1.38302,-0.0158204,0,0,0
 20:58:53.548,-1.30329,1.38413,-0.0158458,0,0,0
 20:58:53.558,-1.30451,1.38524,-0.0158711,0,0,0
 20:58:53.568,-1.30543,1.38633,-0.0158961,0,0,0
 20:58:53.578,-1.30634,1.38741,-0.015921,0,0,0
 20:58:53.587,-1.30698,1.38822,-0.0159395,0,0,0
 20:58:53.598,-1.30817,1.38901,-0.0159576,0,0,0
 20:58:53.608,-1.30907,1.39008,-0.0159822,0,0,0
 20:58:53.618,-1.31025,1.39143,-0.0160133,0,0,0
 20:58:53.628,-1.31115,1.3925,-0.0160379,0,0,0
 20:58:53.638,-1.31204,1.39356,-0.0160624,0,0,0
 20:58:53.648,-1.31322,1.39433,-0.0160802,0,0,0
 20:58:53.658,-1.3141,1.39538,-0.0161045,0,0,0
 20:58:53.668,-1.31526,1.39643,-0.0161285,0,0,0
 20:58:53.678,-1.31613,1.39747,-0.0161526,0,0,0
 20:58:53.688,-1.317,1.39822,-0.01617,0,0,0
 20:58:53.698,-1.31787,1.39925,-0.0161939,0,0,0
 20:58:53.708,-1.31872,1.39999,-0.016211,0,0,0
 20:58:53.718,-1.31986,1.40102,-0.0162347,0,0,0
 20:58:53.728,-1.32071,1.40175,-0.0162518,0,0,0
 20:58:53.738,-1.32183,1.40247,-0.0162685,0,0,0
 20:58:53.748,-1.32267,1.40349,-0.016292,0,0,0
 20:58:53.758,-1.32353,1.40451,-0.0163159,0,0,0
 20:58:53.769,-1.32407,1.40551,-0.0163392,0,0,0
 20:58:53.778,-1.3249,1.4065,-0.0163622,0,0,0
 20:58:53.788,-1.32573,1.40722,-0.0163789,0,0,0
 20:58:53.798,-1.32656,1.40821,-0.0164021,0,0,0
 20:58:53.808,-1.32738,1.40892,-0.0164186,0,0,0
 20:58:53.819,-1.32849,1.40962,-0.016435,0,0,0
 20:58:53.828,-1.32958,1.4106,-0.0164578,0,0,0
 20:58:53.838,-1.33038,1.41157,-0.0164803,0,0,0
 20:58:53.848,-1.33117,1.41282,-0.0165096,0,0,0
 20:58:53.858,-1.33196,1.41377,-0.0165319,0,0,0
 20:58:53.868,-1.33275,1.41473,-0.0165543,0,0,0
 20:58:53.879,-1.33325,1.41568,-0.0165767,0,0,0
 20:58:53.889,-1.33404,1.41634,-0.0165922,0,0,0
 20:58:53.898,-1.33481,1.41699,-0.0166074,0,0,0
 20:58:53.909,-1.33558,1.41764,-0.0166226,0,0,0
 20:58:53.919,-1.33634,1.41857,-0.0166444,0,0,0
 20:58:53.928,-1.3371,1.41949,-0.0166661,0,0,0
 20:58:53.938,-1.33815,1.42014,-0.0166812,0,0,0
 20:58:53.948,-1.33891,1.42078,-0.0166962,0,0,0
 20:58:53.959,-1.33967,1.42141,-0.0167112,0,0,0
 20:58:53.968,-1.34042,1.42205,-0.0167261,0,0,0
 20:58:53.978,-1.34118,1.4224,-0.0167343,0,0,0
 20:58:53.988,-1.34165,1.42304,-0.0167495,0,0,0
 20:58:53.998,-1.34212,1.42397,-0.0167714,0,0,0
 20:58:54.008,-1.34287,1.4246,-0.0167862,0,0,0
 20:58:54.018,-1.34361,1.42522,-0.0168009,0,0,0
 20:58:54.029,-1.34407,1.42613,-0.0168224,0,0,0
 20:58:54.039,-1.34452,1.42703,-0.0168438,0,0,0
 20:58:54.049,-1.34525,1.42822,-0.0168718,0,0,0
 20:58:54.058,-1.34571,1.42883,-0.0168863,0,0,0
 20:58:54.068,-1.34644,1.42972,-0.0169074,0,0,0
 20:58:54.079,-1.34716,1.43032,-0.0169216,0,0,0
 20:58:54.089,-1.34788,1.4312,-0.0169425,0,0,0
 20:58:54.099,-1.3486,1.43208,-0.0169633,0,0,0
 20:58:54.109,-1.3493,1.43351,-0.0169971,0,0,0
 20:58:54.119,-1.34999,1.43464,-0.0170239,0,0,0
 20:58:54.130,-1.35041,1.4355,-0.0170443,0,0,0
 20:58:54.139,-1.35083,1.43606,-0.0170577,0,0,0
 20:58:54.148,-1.35096,1.43606,-0.0170576,0,0,0
 20:58:54.158,-1.35169,1.43522,-0.0170375,0,0,0
 20:58:54.169,-1.35451,1.43556,-0.017077,0,0,0
 20:58:54.179,-1.35672,1.43672,-0.0171363,0,0,0
 20:58:54.189,-1.35709,1.43815,-0.017156,0,0,0
 20:58:54.199,-1.35775,1.43933,-0.0177793,0,0,0
 20:58:54.208,-1.35839,1.4405,-0.0184023,0,0,0
 20:58:54.219,-1.35844,1.44193,-0.0184066,0,0,0
 20:58:54.228,-1.3585,1.44308,-0.018404,0,0,0
 20:58:54.242,-1.35946,1.44362,-0.0184169,0,0,0
 20:58:54.248,-1.35894,1.44475,-0.018414,0,0,0
 20:58:54.259,-1.35926,1.44615,-0.0184175,0,0,0
 20:58:54.269,-1.35992,1.44727,-0.0184297,0,0,0
 20:58:54.279,-1.36118,1.44838,-0.0184572,0,0,0
 20:58:54.289,-1.36215,1.4495,-0.0184848,0,0,0
 20:58:54.299,-1.36341,1.45089,-0.0185192,0,0,0
 20:58:54.309,-1.36553,1.45229,-0.0191787,0,0,0
 20:58:54.319,-1.36676,1.45366,-0.0192126,0,0,0
 20:58:54.329,-1.36827,1.45504,-0.0192465,0,0,0
 20:58:54.339,-1.3689,1.45613,-0.0192581,0,0,0
 20:58:54.349,-1.36952,1.45782,-0.0192695,0,0,0
 20:58:54.359,-1.37013,1.45889,-0.0192806,0,0,0
 20:58:54.369,-1.36923,1.45994,-0.0192602,0,0,0
 20:58:54.379,-1.36984,1.46038,-0.0192708,0,0,0
 20:58:54.389,-1.37015,1.4611,-0.0192881,0,0,0
 20:58:54.399,-1.37102,1.46181,-0.0193052,0,0,0
 20:58:54.409,-1.37133,1.46224,-0.0193154,0,0,0
 20:58:54.419,-1.37191,1.46266,-0.0193256,0,0,0
 20:58:54.430,-1.37221,1.46336,-0.0193426,0,0,0
 20:58:54.438,-1.3728,1.46406,-0.0193596,0,0,0
 20:58:54.449,-1.37338,1.46448,-0.0193695,0,0,0
 20:58:54.459,-1.37397,1.46491,-0.0193798,0,0,0
 20:58:54.468,-1.37484,1.46533,-0.01939,0,0,0
 20:58:54.479,-1.37514,1.46575,-0.0194002,0,0,0
 20:58:54.489,-1.37573,1.46618,-0.0194106,0,0,0
 20:58:54.499,-1.37632,1.46661,-0.0194208,0,0,0
 20:58:54.509,-1.3769,1.46702,-0.0194309,0,0,0
 20:58:54.519,-1.37718,1.46743,-0.0194407,0,0,0
 20:58:54.529,-1.37774,1.46783,-0.0194505,0,0,0
 20:58:54.539,-1.37831,1.46852,-0.0194671,0,0,0
 20:58:54.549,-1.37887,1.4692,-0.0194837,0,0,0
 20:58:54.559,-1.37942,1.4696,-0.0194933,0,0,0
 20:58:54.569,-1.37998,1.46971,-0.0194959,0,0,0
 20:58:54.580,-1.38053,1.4701,-0.0195054,0,0,0
 20:58:54.589,-1.38107,1.47048,-0.0195147,0,0,0
 20:58:54.599,-1.38134,1.47088,-0.0195243,0,0,0
 20:58:54.610,-1.38187,1.47155,-0.0195404,0,0,0
 20:58:54.619,-1.38241,1.47192,-0.0195496,0,0,0
 20:58:54.630,-1.38352,1.47259,-0.0195657,0,0,0
 20:58:54.639,-1.38406,1.47269,-0.0195681,0,0,0
 20:58:54.649,-1.38488,1.47307,-0.0195773,0,0,0
 20:58:54.659,-1.3854,1.47372,-0.0195932,0,0,0
 20:58:54.670,-1.38564,1.47409,-0.0196023,0,0,0
 20:58:54.679,-1.38616,1.47447,-0.0196113,0,0,0
 20:58:54.689,-1.38639,1.47483,-0.0196201,0,0,0
 20:58:54.700,-1.3869,1.47519,-0.0196289,0,0,0
 20:58:54.710,-1.38713,1.47527,-0.0196308,0,0,0
 20:58:54.720,-1.38765,1.47563,-0.0196397,0,0,0
 20:58:54.730,-1.38815,1.47599,-0.0196484,0,0,0
 20:58:54.740,-1.38837,1.47634,-0.019657,0,0,0
 20:58:54.750,-1.38916,1.47669,-0.0196656,0,0,0
 20:58:54.759,-1.38966,1.47705,-0.0196743,0,0,0
 20:58:54.770,-1.39045,1.47769,-0.0196899,0,0,0
 20:58:54.780,-1.39067,1.47834,-0.0197058,0,0,0
 20:58:54.789,-1.39118,1.47898,-0.0197215,0,0,0
 20:58:54.799,-1.3914,1.47935,-0.0197304,0,0,0
 20:58:54.809,-1.39162,1.48027,-0.019753,0,0,0
 20:58:54.820,-1.39212,1.4809,-0.0197685,0,0,0
 20:58:54.829,-1.39233,1.48125,-0.019777,0,0,0
 20:58:54.839,-1.39311,1.48216,-0.0197992,0,0,0
 20:58:54.850,-1.3933,1.48276,-0.0198141,0,0,0
 20:58:54.860,-1.39379,1.48338,-0.0198291,0,0,0
 20:58:54.870,-1.39398,1.48369,-0.0198369,0,0,0
 20:58:54.880,-1.39445,1.48401,-0.0198446,0,0,0
 20:58:54.889,-1.39464,1.48432,-0.0198523,0,0,0
 20:58:54.899,-1.39511,1.48492,-0.0198669,0,0,0
 20:58:54.909,-1.39558,1.48552,-0.0198815,0,0,0
 20:58:54.919,-1.39577,1.48583,-0.0198892,0,0,0
 20:58:54.929,-1.39653,1.48586,-0.0198898,0,0,0
 20:58:54.940,-1.39671,1.48588,-0.0198905,0,0,0
 20:58:54.950,-1.39746,1.4862,-0.0198981,0,0,0
 20:58:54.960,-1.39793,1.48651,-0.0199057,0,0,0
 20:58:54.970,-1.3984,1.48683,-0.0199135,0,0,0
 20:58:54.980,-1.39886,1.48714,-0.0199213,0,0,0
 20:58:54.990,-1.39904,1.48746,-0.019929,0,0,0
 20:58:55.000,-1.39979,1.48776,-0.0199364,0,0,0
 20:58:55.009,-1.39994,1.48805,-0.0199435,0,0,0
 20:58:55.019,-1.40038,1.48834,-0.0199507,0,0,0
 20:58:55.030,-1.40083,1.48863,-0.0199579,0,0,0
 20:58:55.040,-1.40098,1.48892,-0.0199651,0,0,0
 20:58:55.050,-1.40142,1.48921,-0.0199722,0,0,0
 20:58:55.060,-1.40158,1.48951,-0.0199795,0,0,0
 20:58:55.070,-1.40202,1.48952,-0.0199797,0,0,0
 20:58:55.080,-1.40247,1.48982,-0.0199871,0,0,0
 20:58:55.089,-1.40291,1.4904,-0.0200014,0,0,0
 20:58:55.099,-1.40335,1.49097,-0.0200156,0,0,0
 20:58:55.109,-1.40379,1.49126,-0.0200226,0,0,0
 20:58:55.119,-1.40421,1.49182,-0.0200365,0,0,0
 20:58:55.130,-1.40463,1.49238,-0.0200503,0,0,0
 20:58:55.139,-1.40505,1.49294,-0.0200641,0,0,0
 20:58:55.150,-1.40519,1.49321,-0.0200708,0,0,0
 20:58:55.160,-1.40561,1.49376,-0.0200845,0,0,0
 20:58:55.170,-1.40602,1.49403,-0.020091,0,0,0
 20:58:55.180,-1.40644,1.49429,-0.0200975,0,0,0
 20:58:55.189,-1.40685,1.49427,-0.0200969,0,0,0
 20:58:55.200,-1.40728,1.49455,-0.0201038,0,0,0
 20:58:55.210,-1.40768,1.49537,-0.0201242,0,0,0
 20:58:55.220,-1.40808,1.49592,-0.0201376,0,0,0
 20:58:55.230,-1.40879,1.49619,-0.0201444,0,0,0
 20:58:55.240,-1.40891,1.49645,-0.0201507,0,0,0
 20:58:55.250,-1.4096,1.49614,-0.0201429,0,0,0
 20:58:55.260,-1.41001,1.49611,-0.0201423,0,0,0
 20:58:55.270,-1.4107,1.49638,-0.0201488,0,0,0
 20:58:55.280,-1.4111,1.49636,-0.0201483,0,0,0
 20:58:55.290,-1.41064,1.49661,-0.0201546,0,0,0
 20:58:55.300,-1.41215,1.4977,-0.0201816,0,0,0
 20:58:55.310,-1.41229,1.49685,-0.0201603,0,0,0
 20:58:55.320,-1.41244,1.496,-0.0201393,0,0,0
 20:58:55.330,-1.41279,1.49792,-0.020187,0,0,0
 20:58:55.339,-1.41229,1.49871,-0.0202067,0,0,0
 20:58:55.350,-1.41329,1.49814,-0.0201923,0,0,0
 20:58:55.360,-1.41312,1.49783,-0.0201848,0,0,0
 20:58:55.370,-1.41378,1.49864,-0.0202048,0,0,0
 20:58:55.380,-1.41358,1.49945,-0.020225,0,0,0
 20:58:55.390,-1.41452,1.49996,-0.0202378,0,0,0
 20:58:55.401,-1.41464,1.49937,-0.020223,0,0,0
 20:58:55.411,-1.41473,1.49961,-0.0202289,0,0,0
 20:58:55.421,-1.41507,1.50096,-0.0202625,0,0,0
 20:58:55.430,-1.41517,1.50119,-0.0202685,0,0,0
 20:58:55.441,-1.41585,1.5006,-0.0202534,0,0,0
 20:58:55.451,-1.41595,1.50027,-0.0202453,0,0,0
 20:58:55.460,-1.41658,1.50106,-0.0202649,0,0,0
 20:58:55.470,-1.41693,1.50184,-0.0202844,0,0,0
 20:58:55.480,-1.41758,1.50179,-0.0202831,0,0,0
 20:58:55.490,-1.41796,1.50118,-0.0202678,0,0,0
 20:58:55.500,-1.41804,1.50199,-0.020288,0,0,0
 20:58:55.510,-1.41809,1.50248,-0.0203003,0,0,0
 20:58:55.520,-1.41901,1.50241,-0.0202985,0,0,0
 20:58:55.530,-1.41881,1.50237,-0.0202975,0,0,0
 20:58:55.540,-1.41975,1.50289,-0.0203105,0,0,0
 20:58:55.550,-1.41896,1.50341,-0.0203234,0,0,0
 20:58:55.560,-1.41988,1.50419,-0.020343,0,0,0
 20:58:55.571,-1.41996,1.50386,-0.0203347,0,0,0
 20:58:55.581,-1.4206,1.50408,-0.0203402,0,0,0
 20:58:55.590,-1.42065,1.50457,-0.0203525,0,0,0
 20:58:55.600,-1.42098,1.50506,-0.0203647,0,0,0
 20:58:55.610,-1.42161,1.50499,-0.0203629,0,0,0
 20:58:55.620,-1.4214,1.50465,-0.0203543,0,0,0
 20:58:55.630,-1.42203,1.50487,-0.0203597,0,0,0
 20:58:55.640,-1.42179,1.50536,-0.0203721,0,0,0
 20:58:55.650,-1.42242,1.50558,-0.0203775,0,0,0
 20:58:55.661,-1.42249,1.50524,-0.0203689,0,0,0
 20:58:55.670,-1.42311,1.50545,-0.0203743,0,0,0
 20:58:55.680,-1.42317,1.50595,-0.0203868,0,0,0
 20:58:55.691,-1.42351,1.50646,-0.0203995,0,0,0
 20:58:55.700,-1.42384,1.50667,-0.0204047,0,0,0
 20:58:55.710,-1.4239,1.5066,-0.020403,0,0,0
 20:58:55.720,-1.42424,1.50682,-0.0204084,0,0,0
 20:58:55.730,-1.42429,1.50703,-0.0204137,0,0,0
 20:58:55.740,-1.42464,1.50726,-0.0204194,0,0,0
 20:58:55.750,-1.42499,1.5072,-0.020418,0,0,0
 20:58:55.760,-1.42533,1.5077,-0.0204305,0,0,0
 20:58:55.771,-1.42566,1.5082,-0.020443,0,0,0
 20:58:55.781,-1.42456,1.50869,-0.0204555,0,0,0
 20:58:55.791,-1.42547,1.5089,-0.0204606,0,0,0
 20:58:55.800,-1.42638,1.50825,-0.0204443,0,0,0
 20:58:55.811,-1.42615,1.50876,-0.020457,0,0,0
 20:58:55.820,-1.42734,1.50983,-0.0204838,0,0,0
 20:58:55.830,-1.42595,1.50917,-0.0204675,0,0,0
 20:58:55.841,-1.42741,1.50936,-0.0204721,0,0,0
 20:58:55.851,-1.42745,1.51014,-0.0204918,0,0,0
 20:58:55.861,-1.42721,1.51064,-0.0205042,0,0,0
 20:58:55.871,-1.42839,1.51055,-0.0205019,0,0,0
 20:58:55.881,-1.42785,1.51075,-0.0205069,0,0,0
 20:58:55.891,-1.42903,1.51151,-0.0205261,0,0,0
 20:58:55.901,-1.4282,1.51171,-0.020531,0,0,0
 20:58:55.911,-1.42935,1.51188,-0.0205352,0,0,0
 20:58:55.921,-1.4291,1.5115,-0.0205258,0,0,0
 20:58:55.931,-1.42969,1.51197,-0.0205376,0,0,0
 20:58:55.941,-1.4297,1.51243,-0.0205492,0,0,0
 20:58:55.951,-1.42972,1.51261,-0.0205537,0,0,0
 20:58:55.961,-1.43089,1.5128,-0.0205583,0,0,0
 20:58:55.971,-1.42977,1.51241,-0.0205487,0,0,0
 20:58:55.982,-1.4312,1.51316,-0.0205673,0,0,0
 20:58:55.991,-1.43035,1.51304,-0.0205645,0,0,0
 20:58:56.001,-1.43149,1.51349,-0.0205756,0,0,0
 20:58:56.011,-1.43122,1.5131,-0.0205659,0,0,0
 20:58:56.020,-1.4318,1.51327,-0.0205701,0,0,0
 20:58:56.031,-1.43209,1.51373,-0.0205817,0,0,0
 20:58:56.041,-1.43238,1.5139,-0.0205861,0,0,0
 20:58:56.051,-1.43296,1.51379,-0.0205832,0,0,0
 20:58:56.061,-1.43297,1.51397,-0.0205878,0,0,0
 20:58:56.071,-1.43354,1.51472,-0.0206065,0,0,0
 20:58:56.081,-1.43326,1.51517,-0.020618,0,0,0
 20:58:56.091,-1.43382,1.51533,-0.020622,0,0,0
 20:58:56.101,-1.43354,1.51522,-0.0206192,0,0,0
 20:58:56.111,-1.43383,1.51538,-0.0206233,0,0,0
 20:58:56.122,-1.4341,1.51554,-0.0206273,0,0,0
 20:58:56.131,-1.43438,1.51598,-0.0206385,0,0,0
 20:58:56.141,-1.43494,1.51615,-0.0206425,0,0,0
 20:58:56.151,-1.43521,1.5163,-0.0206464,0,0,0
 20:58:56.162,-1.43577,1.51674,-0.0206574,0,0,0
 20:58:56.171,-1.43575,1.5169,-0.0206615,0,0,0
 20:58:56.180,-1.43632,1.51706,-0.0206656,0,0,0
 20:58:56.191,-1.43631,1.51694,-0.0206624,0,0,0
 20:58:56.201,-1.43657,1.51737,-0.0206734,0,0,0
 20:58:56.212,-1.43656,1.51753,-0.0206775,0,0,0
 20:58:56.221,-1.43655,1.51797,-0.0206886,0,0,0
 20:58:56.231,-1.43654,1.51785,-0.0206855,0,0,0
 20:58:56.241,-1.43652,1.518,-0.0206892,0,0,0
 20:58:56.251,-1.43678,1.51842,-0.0207,0,0,0
 20:58:56.261,-1.43676,1.51857,-0.0207037,0,0,0
 20:58:56.271,-1.43703,1.51843,-0.0207002,0,0,0
 20:58:56.282,-1.43702,1.51831,-0.020697,0,0,0
 20:58:56.291,-1.43728,1.51845,-0.0207006,0,0,0
 20:58:56.302,-1.43753,1.51831,-0.020697,0,0,0
 20:58:56.311,-1.4378,1.51846,-0.0207008,0,0,0
 20:58:56.321,-1.43807,1.51862,-0.0207047,0,0,0
 20:58:56.331,-1.43833,1.51876,-0.0207083,0,0,0
 20:58:56.342,-1.43859,1.51891,-0.0207121,0,0,0
 20:58:56.351,-1.43885,1.51905,-0.0207158,0,0,0
 20:58:56.362,-1.43911,1.5192,-0.0207195,0,0,0
 20:58:56.371,-1.43908,1.51935,-0.0207232,0,0,0
 20:58:56.381,-1.43933,1.51978,-0.0207342,0,0,0
 20:58:56.391,-1.43958,1.51992,-0.0207376,0,0,0
 20:58:56.401,-1.43983,1.51977,-0.0207338,0,0,0
 20:58:56.411,-1.44008,1.51962,-0.02073,0,0,0
 20:58:56.421,-1.44032,1.51975,-0.0207334,0,0,0
 20:58:56.431,-1.44057,1.51961,-0.0207296,0,0,0
 20:58:56.441,-1.44053,1.51946,-0.020726,0,0,0
 20:58:56.451,-1.44078,1.51961,-0.0207297,0,0,0
 20:58:56.462,-1.44102,1.51975,-0.0207332,0,0,0
 20:58:56.472,-1.44098,1.51988,-0.0207366,0,0,0
 20:58:56.481,-1.44122,1.52002,-0.0207401,0,0,0
 20:58:56.492,-1.44117,1.52015,-0.0207435,0,0,0
 20:58:56.502,-1.44142,1.5203,-0.0207471,0,0,0
 20:58:56.511,-1.44166,1.52071,-0.0207577,0,0,0
 20:58:56.521,-1.44189,1.52113,-0.0207682,0,0,0
 20:58:56.531,-1.44214,1.52127,-0.0207717,0,0,0
 20:58:56.542,-1.44238,1.5214,-0.0207752,0,0,0
 20:58:56.551,-1.44234,1.52125,-0.0207714,0,0,0
 20:58:56.562,-1.44285,1.52138,-0.0207746,0,0,0
 20:58:56.572,-1.44309,1.52152,-0.020778,0,0,0
 20:58:56.581,-1.44333,1.52165,-0.0207814,0,0,0
 20:58:56.592,-1.44384,1.52178,-0.0207846,0,0,0
 20:58:56.602,-1.44436,1.5222,-0.0207952,0,0,0
 20:58:56.612,-1.44459,1.52233,-0.0207986,0,0,0
 20:58:56.621,-1.44483,1.52247,-0.0208021,0,0,0
 20:58:56.631,-1.44507,1.52261,-0.0208056,0,0,0
 20:58:56.642,-1.44502,1.52275,-0.0208091,0,0,0
 20:58:56.652,-1.44553,1.52287,-0.0208123,0,0,0
 20:58:56.662,-1.44547,1.523,-0.0208156,0,0,0
 20:58:56.671,-1.4454,1.52284,-0.0208114,0,0,0
 20:58:56.681,-1.44534,1.52297,-0.0208147,0,0,0
 20:58:56.692,-1.44528,1.52309,-0.0208179,0,0,0
 20:58:56.702,-1.44579,1.52321,-0.0208209,0,0,0
 20:58:56.711,-1.44573,1.52363,-0.0208315,0,0,0
 20:58:56.721,-1.44594,1.52289,-0.0208126,0,0,0
 20:58:56.731,-1.44615,1.52272,-0.0208082,0,0,0
 20:58:56.742,-1.44637,1.5237,-0.0208333,0,0,0
 20:58:56.752,-1.44631,1.52354,-0.0208292,0,0,0
 20:58:56.762,-1.44623,1.52337,-0.0208248,0,0,0
 20:58:56.772,-1.44645,1.52377,-0.020835,0,0,0
 20:58:56.782,-1.44611,1.52391,-0.0208386,0,0,0
 20:58:56.792,-1.44663,1.52404,-0.0208419,0,0,0
 20:58:56.802,-1.44656,1.52445,-0.0208523,0,0,0
 20:58:56.812,-1.44678,1.52457,-0.0208554,0,0,0
 20:58:56.821,-1.44672,1.52469,-0.0208586,0,0,0
 20:58:56.832,-1.44665,1.52509,-0.0208687,0,0,0
 20:58:56.842,-1.44715,1.52549,-0.020879,0,0,0
 20:58:56.852,-1.4468,1.52589,-0.0208892,0,0,0
 20:58:56.862,-1.44701,1.526,-0.0208919,0,0,0
 20:58:56.872,-1.44694,1.52582,-0.0208873,0,0,0
 20:58:56.882,-1.44743,1.52592,-0.0208898,0,0,0
 20:58:56.892,-1.44736,1.52603,-0.0208927,0,0,0
 20:58:56.902,-1.44757,1.52643,-0.0209028,0,0,0
 20:58:56.912,-1.44751,1.52683,-0.0209131,0,0,0
 20:58:56.922,-1.44745,1.52695,-0.0209161,0,0,0
 20:58:56.932,-1.44767,1.52678,-0.0209117,0,0,0
 20:58:56.942,-1.44789,1.5269,-0.0209147,0,0,0
 20:58:56.952,-1.44812,1.52702,-0.0209178,0,0,0
 20:58:56.962,-1.44777,1.52714,-0.0209208,0,0,0
 20:58:56.972,-1.44798,1.52724,-0.0209236,0,0,0
 20:58:56.982,-1.4482,1.52736,-0.0209265,0,0,0
 20:58:56.992,-1.44842,1.52747,-0.0209293,0,0,0
 20:58:57.002,-1.44864,1.5273,-0.0209249,0,0,0
 20:58:57.012,-1.44857,1.52713,-0.0209206,0,0,0
 20:58:57.022,-1.44879,1.52724,-0.0209235,0,0,0
 20:58:57.032,-1.44844,1.52707,-0.0209191,0,0,0
 20:58:57.042,-1.44866,1.52719,-0.0209221,0,0,0
 20:58:57.052,-1.44886,1.52729,-0.0209248,0,0,0
 20:58:57.062,-1.44879,1.5274,-0.0209275,0,0,0
 20:58:57.072,-1.449,1.52722,-0.0209229,0,0,0
 20:58:57.082,-1.44892,1.52733,-0.0209256,0,0,0
 20:58:57.092,-1.44913,1.52772,-0.0209356,0,0,0
 20:58:57.102,-1.44905,1.52782,-0.0209383,0,0,0
 20:58:57.112,-1.44925,1.52792,-0.0209407,0,0,0
 20:58:57.122,-1.44946,1.52802,-0.0209433,0,0,0
 20:58:57.132,-1.44967,1.52842,-0.0209534,0,0,0
 20:58:57.142,-1.44988,1.52853,-0.0209562,0,0,0
 20:58:57.152,-1.45009,1.52891,-0.020966,0,0,0
 20:58:57.162,-1.45057,1.5293,-0.0209758,0,0,0
 20:58:57.172,-1.45049,1.52911,-0.020971,0,0,0
 20:58:57.183,-1.45098,1.52921,-0.0209736,0,0,0
 20:58:57.192,-1.4509,1.52903,-0.020969,0,0,0
 20:58:57.202,-1.4511,1.52913,-0.0209715,0,0,0
 20:58:57.212,-1.45158,1.52922,-0.0209737,0,0,0
 20:58:57.222,-1.45149,1.52932,-0.0209762,0,0,0
 20:58:57.233,-1.45196,1.52941,-0.0209784,0,0,0
 20:58:57.243,-1.45215,1.5295,-0.0209809,0,0,0
 20:58:57.253,-1.45263,1.52988,-0.0209906,0,0,0
 20:58:57.263,-1.45253,1.52998,-0.020993,0,0,0
 20:58:57.272,-1.45272,1.53006,-0.0209951,0,0,0
 20:58:57.283,-1.45262,1.53015,-0.0209973,0,0,0
 20:58:57.293,-1.4528,1.53052,-0.021007,0,0,0
 20:58:57.303,-1.45299,1.53061,-0.0210091,0,0,0
 20:58:57.313,-1.45289,1.53041,-0.0210041,0,0,0
 20:58:57.322,-1.45279,1.5305,-0.0210064,0,0,0
 20:58:57.332,-1.4527,1.53031,-0.0210014,0,0,0
 20:58:57.342,-1.45289,1.5304,-0.0210037,0,0,0
 20:58:57.353,-1.45308,1.53049,-0.0210061,0,0,0
 20:58:57.363,-1.45298,1.53058,-0.0210084,0,0,0
 20:58:57.373,-1.45289,1.53096,-0.0210182,0,0,0
 20:58:57.382,-1.4528,1.53106,-0.0210207,0,0,0
 20:58:57.392,-1.45299,1.53086,-0.0210156,0,0,0
 20:58:57.402,-1.4529,1.53096,-0.0210181,0,0,0
 20:58:57.412,-1.45281,1.53105,-0.0210205,0,0,0
 20:58:57.423,-1.453,1.53115,-0.021023,0,0,0
 20:58:57.433,-1.4532,1.53124,-0.0210254,0,0,0
 20:58:57.443,-1.45339,1.53134,-0.0210278,0,0,0
 20:58:57.453,-1.4533,1.53143,-0.0210302,0,0,0
 20:58:57.463,-1.4535,1.53181,-0.0210399,0,0,0
 20:58:57.473,-1.45369,1.53219,-0.0210496,0,0,0
 20:58:57.483,-1.45387,1.53227,-0.0210516,0,0,0
 20:58:57.493,-1.45407,1.53208,-0.0210468,0,0,0
 20:58:57.503,-1.45426,1.53217,-0.0210491,0,0,0
 20:58:57.513,-1.45445,1.53226,-0.0210514,0,0,0
 20:58:57.523,-1.45465,1.53265,-0.0210612,0,0,0
 20:58:57.533,-1.45484,1.53274,-0.0210636,0,0,0
 20:58:57.542,-1.45474,1.53311,-0.021073,0,0,0
 20:58:57.553,-1.45463,1.53347,-0.0210823,0,0,0
 20:58:57.563,-1.45481,1.53354,-0.0210842,0,0,0
 20:58:57.573,-1.45499,1.53362,-0.0210861,0,0,0
 20:58:57.583,-1.45518,1.5337,-0.0210882,0,0,0
 20:58:57.593,-1.45537,1.53379,-0.0210905,0,0,0
 20:58:57.603,-1.45527,1.53387,-0.0210926,0,0,0
 20:58:57.613,-1.45488,1.53396,-0.0210947,0,0,0
 20:58:57.623,-1.45506,1.53403,-0.0210966,0,0,0
 20:58:57.633,-1.45496,1.53411,-0.0210987,0,0,0
 20:58:57.642,-1.45514,1.53419,-0.0211007,0,0,0
 20:58:57.652,-1.45504,1.53427,-0.0211028,0,0,0
 20:58:57.663,-1.45522,1.53434,-0.0211046,0,0,0
 20:58:57.673,-1.45511,1.5344,-0.0211063,0,0,0
 20:58:57.683,-1.45528,1.53448,-0.0211081,0,0,0
 20:58:57.693,-1.45546,1.53483,-0.0211172,0,0,0
 20:58:57.703,-1.45535,1.5349,-0.0211189,0,0,0
 20:58:57.713,-1.45582,1.53526,-0.0211282,0,0,0
 20:58:57.723,-1.45572,1.53534,-0.0211303,0,0,0
 20:58:57.733,-1.4559,1.53541,-0.021132,0,0,0
 20:58:57.743,-1.45606,1.53575,-0.0211408,0,0,0
 20:58:57.753,-1.45651,1.53581,-0.0211422,0,0,0
 20:58:57.763,-1.4564,1.53587,-0.0211439,0,0,0
 20:58:57.773,-1.45656,1.53593,-0.0211453,0,0,0
 20:58:57.783,-1.45644,1.53599,-0.0211467,0,0,0
 20:58:57.793,-1.45661,1.53605,-0.0211483,0,0,0
 20:58:57.803,-1.45678,1.53611,-0.0211499,0,0,0
 20:58:57.813,-1.45666,1.53617,-0.0211513,0,0,0
 20:58:57.823,-1.45654,1.53622,-0.0211527,0,0,0
 20:58:57.834,-1.45642,1.53628,-0.0211544,0,0,0
 20:58:57.843,-1.45659,1.53635,-0.0211559,0,0,0
 20:58:57.853,-1.4562,1.5367,-0.0211651,0,0,0
 20:58:57.863,-1.4561,1.53706,-0.0211743,0,0,0
 20:58:57.873,-1.45628,1.53713,-0.021176,0,0,0
 20:58:57.883,-1.45617,1.53719,-0.0211777,0,0,0
 20:58:57.894,-1.45607,1.53726,-0.0211794,0,0,0
 20:58:57.903,-1.45625,1.53704,-0.0211737,0,0,0
 20:58:57.913,-1.45643,1.53682,-0.021168,0,0,0
 20:58:57.923,-1.45631,1.53687,-0.0211695,0,0,0
 20:58:57.933,-1.45649,1.53693,-0.021171,0,0,0
 20:58:57.943,-1.45666,1.53728,-0.02118,0,0,0
 20:58:57.953,-1.45685,1.53736,-0.0211819,0,0,0
 20:58:57.963,-1.45674,1.53742,-0.0211835,0,0,0
 20:58:57.973,-1.45663,1.53749,-0.0211852,0,0,0
 20:58:57.983,-1.45652,1.53755,-0.0211868,0,0,0
 20:58:57.993,-1.4567,1.53761,-0.0211884,0,0,0
 20:58:58.003,-1.45688,1.53739,-0.0211827,0,0,0
 20:58:58.014,-1.45705,1.53745,-0.0211843,0,0,0
 20:58:58.023,-1.45723,1.53723,-0.0211786,0,0,0
 20:58:58.034,-1.45712,1.53701,-0.0211729,0,0,0
 20:58:58.043,-1.45729,1.53707,-0.0211744,0,0,0
 20:58:58.054,-1.45716,1.53712,-0.0211757,0,0,0
 20:58:58.064,-1.45732,1.53717,-0.021177,0,0,0
 20:58:58.073,-1.45749,1.53722,-0.0211784,0,0,0
 20:58:58.083,-1.45793,1.53756,-0.021187,0,0,0
 20:58:58.093,-1.45809,1.53789,-0.0211955,0,0,0
 20:58:58.103,-1.45824,1.53794,-0.0211967,0,0,0
 20:58:58.113,-1.45839,1.53798,-0.0211976,0,0,0
 20:58:58.123,-1.45826,1.53803,-0.021199,0,0,0
 20:58:58.134,-1.45813,1.53807,-0.0212002,0,0,0
 20:58:58.144,-1.458,1.53812,-0.0212013,0,0,0
 20:58:58.154,-1.45817,1.53817,-0.0212027,0,0,0
 20:58:58.164,-1.45833,1.53822,-0.021204,0,0,0
 20:58:58.174,-1.45821,1.53799,-0.021198,0,0,0
 20:58:58.183,-1.45838,1.53805,-0.0211996,0,0,0
 20:58:58.193,-1.45854,1.53782,-0.0211936,0,0,0
 20:58:58.203,-1.45841,1.53787,-0.021195,0,0,0
 20:58:58.214,-1.45829,1.53793,-0.0211964,0,0,0
 20:58:58.224,-1.45845,1.53827,-0.0212051,0,0,0
 20:58:58.234,-1.45833,1.5386,-0.0212137,0,0,0
 20:58:58.244,-1.45849,1.53865,-0.021215,0,0,0
 20:58:58.254,-1.45837,1.53871,-0.0212165,0,0,0
 20:58:58.264,-1.45855,1.53878,-0.0212182,0,0,0
 20:58:58.274,-1.45842,1.53882,-0.0212195,0,0,0
 20:58:58.283,-1.45858,1.53887,-0.0212207,0,0,0
 20:58:58.294,-1.45902,1.53863,-0.0212144,0,0,0
 20:58:58.304,-1.45917,1.53839,-0.0212081,0,0,0
 20:58:58.314,-1.45933,1.53844,-0.0212094,0,0,0
 20:58:58.324,-1.45921,1.5385,-0.0212109,0,0,0
 20:58:58.334,-1.45937,1.53884,-0.0212198,0,0,0
 20:58:58.344,-1.45954,1.53918,-0.0212286,0,0,0
 20:58:58.354,-1.4597,1.53924,-0.02123,0,0,0
 20:58:58.363,-1.45986,1.53929,-0.0212314,0,0,0
 20:58:58.373,-1.45973,1.53934,-0.0212326,0,0,0
 20:58:58.384,-1.45961,1.53939,-0.021234,0,0,0
 20:58:58.394,-1.45948,1.53945,-0.0212354,0,0,0
 20:58:58.404,-1.45965,1.5395,-0.0212367,0,0,0
 20:58:58.414,-1.45981,1.53955,-0.0212381,0,0,0
 20:58:58.424,-1.45968,1.53961,-0.0212395,0,0,0
 20:58:58.434,-1.45985,1.53966,-0.0212408,0,0,0
 20:58:58.444,-1.45943,1.53971,-0.021242,0,0,0
 20:58:58.453,-1.45959,1.53976,-0.0212434,0,0,0
 20:58:58.464,-1.45976,1.53981,-0.0212447,0,0,0
 20:58:58.474,-1.45992,1.53986,-0.021246,0,0,0
 20:58:58.484,-1.46065,1.5402,-0.0212546,0,0,0
 20:58:58.494,-1.45995,1.53996,-0.0212486,0,0,0
 20:58:58.504,-1.46009,1.53971,-0.021242,0,0,0
 20:58:58.514,-1.46025,1.53976,-0.0212433,0,0,0
 20:58:58.524,-1.45984,1.5401,-0.021252,0,0,0
 20:58:58.533,-1.46029,1.54015,-0.0212533,0,0,0
 20:58:58.544,-1.45988,1.53992,-0.0212475,0,0,0
 20:58:58.554,-1.46061,1.54025,-0.0212559,0,0,0
 20:58:58.564,-1.46019,1.5403,-0.0212572,0,0,0
 20:58:58.574,-1.46063,1.54062,-0.0212656,0,0,0
 20:58:58.584,-1.46078,1.54095,-0.0212739,0,0,0
 20:58:58.594,-1.46064,1.54127,-0.0212821,0,0,0
 20:58:58.603,-1.46106,1.54129,-0.0212828,0,0,0
 20:58:58.614,-1.46093,1.54134,-0.0212839,0,0,0
 20:58:58.624,-1.46165,1.54138,-0.0212848,0,0,0
 20:58:58.634,-1.46123,1.54142,-0.021286,0,0,0
 20:58:58.644,-1.46194,1.54173,-0.021294,0,0,0
 20:58:58.654,-1.46181,1.54178,-0.0212951,0,0,0
 20:58:58.664,-1.46224,1.54209,-0.0213033,0,0,0
 20:58:58.674,-1.46209,1.54241,-0.0213115,0,0,0
 20:58:58.684,-1.46223,1.54272,-0.0213194,0,0,0
 20:58:58.694,-1.46236,1.54303,-0.0213273,0,0,0
 20:58:58.704,-1.46251,1.54277,-0.0213207,0,0,0
 20:58:58.715,-1.46265,1.5428,-0.0213214,0,0,0
 20:58:58.724,-1.46279,1.54283,-0.0213222,0,0,0
 20:58:58.734,-1.46292,1.54314,-0.0213301,0,0,0
 20:58:58.744,-1.46305,1.54316,-0.0213306,0,0,0
 20:58:58.754,-1.46319,1.54318,-0.0213313,0,0,0
 20:58:58.765,-1.46332,1.54321,-0.021332,0,0,0
 20:58:58.774,-1.46375,1.54324,-0.0213326,0,0,0
 20:58:58.784,-1.46388,1.54298,-0.0213259,0,0,0
 20:58:58.794,-1.46401,1.543,-0.0213265,0,0,0
 20:58:58.804,-1.46413,1.54302,-0.021327,0,0,0
 20:58:58.814,-1.46427,1.54276,-0.0213203,0,0,0
 20:58:58.824,-1.46412,1.5428,-0.0213213,0,0,0
 20:58:58.834,-1.46426,1.54255,-0.0213149,0,0,0
 20:58:58.844,-1.46411,1.54258,-0.0213157,0,0,0
 20:58:58.854,-1.46396,1.54261,-0.0213165,0,0,0
 20:58:58.864,-1.4638,1.54264,-0.0213171,0,0,0
 20:58:58.875,-1.46392,1.54266,-0.0213176,0,0,0
 20:58:58.884,-1.46406,1.54269,-0.0213184,0,0,0
 20:58:58.894,-1.46419,1.54272,-0.0213191,0,0,0
 20:58:58.905,-1.46404,1.54246,-0.0213126,0,0,0
 20:58:58.915,-1.46388,1.54248,-0.0213132,0,0,0
 20:58:58.924,-1.46401,1.54251,-0.0213138,0,0,0
 20:58:58.934,-1.46414,1.54254,-0.0213145,0,0,0
 20:58:58.945,-1.46427,1.54285,-0.0213227,0,0,0
 20:58:58.955,-1.4644,1.54316,-0.0213306,0,0,0
 20:58:58.964,-1.46425,1.54348,-0.0213389,0,0,0
 20:58:58.975,-1.46438,1.54351,-0.0213395,0,0,0
 20:58:58.984,-1.46423,1.54353,-0.0213402,0,0,0
 20:58:58.994,-1.46436,1.54356,-0.0213408,0,0,0
 20:58:59.004,-1.46448,1.54358,-0.0213413,0,0,0
 20:58:59.014,-1.46434,1.54361,-0.0213422,0,0,0
 20:58:59.025,-1.46418,1.54363,-0.0213428,0,0,0
 20:58:59.035,-1.46431,1.54365,-0.0213433,0,0,0
 20:58:59.044,-1.46415,1.54367,-0.0213437,0,0,0
 20:58:59.055,-1.46399,1.54369,-0.0213442,0,0,0
 20:58:59.065,-1.46384,1.54371,-0.0213448,0,0,0
 20:58:59.074,-1.46397,1.54345,-0.0213381,0,0,0
 20:58:59.085,-1.46382,1.54348,-0.0213388,0,0,0
 20:58:59.094,-1.46394,1.54349,-0.0213392,0,0,0
 20:58:59.105,-1.46408,1.54381,-0.0213472,0,0,0
 20:58:59.115,-1.4642,1.54382,-0.0213477,0,0,0
 20:58:59.125,-1.46434,1.54385,-0.0213483,0,0,0
 20:58:59.135,-1.46446,1.54386,-0.0213487,0,0,0
 20:58:59.144,-1.4646,1.54418,-0.0213569,0,0,0
 20:58:59.155,-1.46473,1.5442,-0.0213574,0,0,0
 20:58:59.164,-1.46457,1.54422,-0.021358,0,0,0
 20:58:59.174,-1.4647,1.54425,-0.0213586,0,0,0
 20:58:59.184,-1.46483,1.54427,-0.0213591,0,0,0
 20:58:59.194,-1.46497,1.5443,-0.0213599,0,0,0
 20:58:59.204,-1.46482,1.54404,-0.0213533,0,0,0
 20:58:59.214,-1.46468,1.54379,-0.0213469,0,0,0
 20:58:59.224,-1.46482,1.54383,-0.0213477,0,0,0
 20:58:59.235,-1.46524,1.54357,-0.0213411,0,0,0
 20:58:59.245,-1.46566,1.54361,-0.021342,0,0,0
 20:58:59.255,-1.46551,1.54335,-0.0213354,0,0,0
 20:58:59.265,-1.46592,1.54338,-0.0213361,0,0,0
 20:58:59.275,-1.46605,1.5437,-0.0213443,0,0,0
 20:58:59.285,-1.46617,1.54401,-0.0213523,0,0,0
 20:58:59.295,-1.46629,1.54403,-0.0213529,0,0,0
 20:58:59.305,-1.46642,1.54378,-0.0213463,0,0,0
 20:58:59.315,-1.46656,1.54382,-0.0213473,0,0,0
 20:58:59.325,-1.46669,1.54356,-0.0213408,0,0,0
 20:58:59.335,-1.46682,1.5436,-0.0213416,0,0,0
 20:58:59.345,-1.46694,1.54334,-0.0213351,0,0,0
 20:58:59.355,-1.46678,1.54338,-0.021336,0,0,0
 20:58:59.365,-1.46662,1.54341,-0.0213367,0,0,0
 20:58:59.375,-1.46674,1.54343,-0.0213373,0,0,0
 20:58:59.385,-1.46686,1.54346,-0.021338,0,0,0
 20:58:59.395,-1.4667,1.54349,-0.0213389,0,0,0
 20:58:59.405,-1.46683,1.54381,-0.0213471,0,0,0
 20:58:59.415,-1.46695,1.54383,-0.0213478,0,0,0
 20:58:59.425,-1.46706,1.54386,-0.0213484,0,0,0
 20:58:59.435,-1.46717,1.54387,-0.0213488,0,0,0
 20:58:59.445,-1.46728,1.54389,-0.0213492,0,0,0
 20:58:59.455,-1.46739,1.54391,-0.0213496,0,0,0
 20:58:59.465,-1.46751,1.54365,-0.0213428,0,0,0
 20:58:59.475,-1.46763,1.54367,-0.0213434,0,0,0
 20:58:59.485,-1.46746,1.5437,-0.0213441,0,0,0
 20:58:59.495,-1.46729,1.54372,-0.0213448,0,0,0
 20:58:59.505,-1.4674,1.54374,-0.0213454,0,0,0
 20:58:59.515,-1.46752,1.54348,-0.0213386,0,0,0
 20:58:59.525,-1.46764,1.54351,-0.0213393,0,0,0
 20:58:59.536,-1.46775,1.54354,-0.0213399,0,0,0
 20:58:59.545,-1.46758,1.54385,-0.021348,0,0,0
 20:58:59.555,-1.4674,1.54386,-0.0213484,0,0,0
 20:58:59.565,-1.46752,1.54389,-0.021349,0,0,0
 20:58:59.575,-1.46764,1.5442,-0.0213572,0,0,0
 20:58:59.585,-1.46777,1.54423,-0.021358,0,0,0
 20:58:59.595,-1.46788,1.54426,-0.0213586,0,0,0
 20:58:59.606,-1.46772,1.54429,-0.0213595,0,0,0
 20:58:59.616,-1.46785,1.54432,-0.0213603,0,0,0
 20:58:59.626,-1.46768,1.54435,-0.0213611,0,0,0
 20:58:59.635,-1.46751,1.54437,-0.0213617,0,0,0
 20:58:59.645,-1.46734,1.5444,-0.0213622,0,0,0
 20:58:59.655,-1.46747,1.54443,-0.0213632,0,0,0
 20:58:59.665,-1.46789,1.54447,-0.0213641,0,0,0
 20:58:59.675,-1.46801,1.5445,-0.0213648,0,0,0
 20:58:59.686,-1.46813,1.54453,-0.0213655,0,0,0
 20:58:59.695,-1.46796,1.54455,-0.0213661,0,0,0
 20:58:59.705,-1.46808,1.54458,-0.0213668,0,0,0
 20:58:59.715,-1.4682,1.5446,-0.0213675,0,0,0
 20:58:59.725,-1.46832,1.54462,-0.021368,0,0,0
 20:58:59.736,-1.46814,1.54464,-0.0213686,0,0,0
 20:58:59.745,-1.46825,1.54494,-0.0213763,0,0,0
 20:58:59.755,-1.46807,1.54496,-0.0213768,0,0,0
 20:58:59.765,-1.46791,1.54499,-0.0213774,0,0,0
 20:58:59.775,-1.46802,1.545,-0.0213779,0,0,0
 20:58:59.785,-1.46814,1.54503,-0.0213786,0,0,0
 20:58:59.796,-1.46826,1.54505,-0.021379,0,0,0
 20:58:59.806,-1.46809,1.54507,-0.0213797,0,0,0
 20:58:59.816,-1.4682,1.54509,-0.0213802,0,0,0
 20:58:59.826,-1.46832,1.54512,-0.0213808,0,0,0
 20:58:59.836,-1.46844,1.54514,-0.0213815,0,0,0
 20:58:59.845,-1.46855,1.54516,-0.0213819,0,0,0
 20:58:59.855,-1.46867,1.54519,-0.0213826,0,0,0
 20:58:59.866,-1.4685,1.54521,-0.0213832,0,0,0
 20:58:59.876,-1.46862,1.54524,-0.0213839,0,0,0
 20:58:59.886,-1.46874,1.54526,-0.0213845,0,0,0
 20:58:59.896,-1.46886,1.54529,-0.0213851,0,0,0
 20:58:59.906,-1.46898,1.54532,-0.0213859,0,0,0
 20:58:59.916,-1.4691,1.54534,-0.0213866,0,0,0
 20:58:59.926,-1.4695,1.54537,-0.0213872,0,0,0
 20:58:59.936,-1.46961,1.54539,-0.0213878,0,0,0
 20:58:59.946,-1.46973,1.54541,-0.0213884,0,0,0
 20:58:59.956,-1.46955,1.54544,-0.021389,0,0,0
 20:58:59.966,-1.46967,1.54546,-0.0213896,0,0,0
 20:58:59.976,-1.46949,1.5452,-0.0213829,0,0,0
 20:58:59.986,-1.46961,1.54523,-0.0213835,0,0,0
 20:58:59.996,-1.46943,1.54525,-0.0213842,0,0,0
 20:59:00.006,-1.46926,1.54528,-0.0213848,0,0,0
 20:59:00.016,-1.46938,1.54559,-0.0213929,0,0,0
 20:59:00.026,-1.4695,1.54562,-0.0213936,0,0,0
 20:59:00.036,-1.4696,1.54563,-0.021394,0,0,0
 20:59:00.046,-1.46999,1.54565,-0.0213944,0,0,0
 20:59:00.055,-1.46981,1.54566,-0.0213948,0,0,0
 20:59:00.065,-1.46963,1.54539,-0.0213876,0,0,0
 20:59:00.075,-1.46973,1.54569,-0.0213954,0,0,0
 20:59:00.086,-1.46984,1.54599,-0.0214032,0,0,0
 20:59:00.096,-1.46965,1.54629,-0.0214109,0,0,0
 20:59:00.106,-1.46947,1.5463,-0.0214113,0,0,0
 20:59:00.116,-1.46959,1.54603,-0.0214044,0,0,0
 20:59:00.126,-1.46941,1.54604,-0.0214047,0,0,0
 20:59:00.135,-1.46923,1.54606,-0.0214051,0,0,0
 20:59:00.146,-1.46905,1.54607,-0.0214054,0,0,0
 20:59:00.156,-1.46915,1.54608,-0.0214056,0,0,0
 20:59:00.166,-1.46925,1.54608,-0.0214057,0,0,0
 20:59:00.176,-1.46964,1.54609,-0.0214058,0,0,0
 20:59:00.186,-1.46946,1.54581,-0.0213987,0,0,0
 20:59:00.195,-1.46928,1.54583,-0.0213991,0,0,0
 20:59:00.207,-1.46938,1.54583,-0.0213993,0,0,0
 20:59:00.216,-1.46948,1.54585,-0.0213996,0,0,0
 20:59:00.226,-1.46931,1.54586,-0.0214,0,0,0
 20:59:00.236,-1.46912,1.54587,-0.0214002,0,0,0
 20:59:00.246,-1.46923,1.54588,-0.0214006,0,0,0
 20:59:00.256,-1.46877,1.54619,-0.0214086,0,0,0
 20:59:00.266,-1.46917,1.54649,-0.0214162,0,0,0
 20:59:00.276,-1.46899,1.5465,-0.0214165,0,0,0
 20:59:00.286,-1.4691,1.54651,-0.0214168,0,0,0
 20:59:00.296,-1.4692,1.54652,-0.0214171,0,0,0
 20:59:00.306,-1.46874,1.54682,-0.0214248,0,0,0
 20:59:00.316,-1.46914,1.54711,-0.0214324,0,0,0
 20:59:00.326,-1.46867,1.54712,-0.0214326,0,0,0
 20:59:00.336,-1.46878,1.54769,-0.0214473,0,0,0
 20:59:00.346,-1.46888,1.5474,-0.0214399,0,0,0
 20:59:00.356,-1.4687,1.54741,-0.0214401,0,0,0
 20:59:00.367,-1.4691,1.54741,-0.0214402,0,0,0
 20:59:00.376,-1.46892,1.54742,-0.0214404,0,0,0
 20:59:00.386,-1.46902,1.5477,-0.0214477,0,0,0
 20:59:00.396,-1.46856,1.54742,-0.0214405,0,0,0
 20:59:00.407,-1.46867,1.54771,-0.021448,0,0,0
 20:59:00.416,-1.4685,1.54801,-0.0214558,0,0,0
 20:59:00.426,-1.46862,1.54802,-0.021456,0,0,0
 20:59:00.436,-1.46845,1.54803,-0.0214563,0,0,0
 20:59:00.446,-1.46828,1.54804,-0.0214564,0,0,0
 20:59:00.457,-1.4681,1.54804,-0.0214565,0,0,0
 20:59:00.466,-1.46793,1.54804,-0.0214566,0,0,0
 20:59:00.476,-1.46776,1.54805,-0.0214567,0,0,0
 20:59:00.486,-1.46759,1.54834,-0.0214642,0,0,0
 20:59:00.496,-1.46771,1.54862,-0.0214716,0,0,0
 20:59:00.507,-1.46783,1.54863,-0.0214718,0,0,0
 20:59:00.516,-1.46766,1.54863,-0.0214718,0,0,0
 20:59:00.526,-1.46777,1.54863,-0.0214718,0,0,0
 20:59:00.536,-1.46789,1.54835,-0.0214644,0,0,0
 20:59:00.546,-1.468,1.54806,-0.0214571,0,0,0
 20:59:00.556,-1.46811,1.54806,-0.021457,0,0,0
 20:59:00.567,-1.46822,1.54806,-0.021457,0,0,0
 20:59:00.577,-1.46805,1.54806,-0.0214571,0,0,0
 20:59:00.586,-1.46788,1.54807,-0.0214572,0,0,0
 20:59:00.596,-1.468,1.54779,-0.0214501,0,0,0
 20:59:00.607,-1.46811,1.5478,-0.0214502,0,0,0
 20:59:00.617,-1.46794,1.54752,-0.0214429,0,0,0
 20:59:00.626,-1.46777,1.54724,-0.0214357,0,0,0
 20:59:00.636,-1.46731,1.54753,-0.0214433,0,0,0
 20:59:00.647,-1.46714,1.54753,-0.0214435,0,0,0
 20:59:00.657,-1.46726,1.54754,-0.0214436,0,0,0
 20:59:00.667,-1.4671,1.54784,-0.0214514,0,0,0
 20:59:00.677,-1.46722,1.54785,-0.0214517,0,0,0
 20:59:00.686,-1.46706,1.54786,-0.021452,0,0,0
 20:59:00.696,-1.4669,1.54816,-0.0214597,0,0,0
 20:59:00.707,-1.46674,1.54817,-0.02146,0,0,0
 20:59:00.716,-1.46687,1.54818,-0.0214602,0,0,0
 20:59:00.726,-1.46671,1.54818,-0.0214603,0,0,0
 20:59:00.736,-1.46653,1.54818,-0.0214602,0,0,0
 20:59:00.746,-1.46636,1.54817,-0.0214601,0,0,0
 20:59:00.756,-1.46591,1.54817,-0.0214602,0,0,0
 20:59:00.767,-1.46575,1.54818,-0.0214603,0,0,0
 20:59:00.777,-1.46558,1.54817,-0.0214601,0,0,0
 20:59:00.787,-1.46543,1.54818,-0.0214604,0,0,0
 20:59:00.796,-1.46528,1.54848,-0.0214681,0,0,0
 20:59:00.806,-1.46512,1.54848,-0.0214681,0,0,0
 20:59:00.817,-1.46496,1.54847,-0.021468,0,0,0
 20:59:00.827,-1.46479,1.54847,-0.0214678,0,0,0
 20:59:00.837,-1.46491,1.54874,-0.021475,0,0,0
 20:59:00.847,-1.46476,1.54903,-0.0214824,0,0,0
 20:59:00.857,-1.46489,1.54903,-0.0214823,0,0,0
 20:59:00.867,-1.46502,1.54902,-0.0214822,0,0,0
 20:59:00.876,-1.46515,1.54903,-0.0214824,0,0,0
 20:59:00.887,-1.465,1.54875,-0.0214752,0,0,0
 20:59:00.897,-1.46513,1.54875,-0.0214751,0,0,0
 20:59:00.907,-1.46554,1.54875,-0.0214751,0,0,0
 20:59:00.917,-1.46567,1.54847,-0.0214677,0,0,0
 20:59:00.927,-1.4658,1.54847,-0.0214679,0,0,0
 20:59:00.937,-1.46565,1.54848,-0.0214682,0,0,0
 20:59:00.947,-1.46577,1.54848,-0.0214682,0,0,0
 20:59:00.957,-1.4659,1.54848,-0.0214682,0,0,0
 20:59:00.966,-1.46603,1.54878,-0.0214758,0,0,0
 20:59:00.977,-1.46644,1.54906,-0.0214831,0,0,0
 20:59:00.987,-1.46627,1.54935,-0.0214904,0,0,0
 20:59:00.997,-1.46639,1.54963,-0.0214977,0,0,0
 20:59:01.007,-1.46651,1.54962,-0.0214974,0,0,0
 20:59:01.017,-1.46662,1.5496,-0.0214971,0,0,0
 20:59:01.027,-1.46675,1.54932,-0.0214897,0,0,0
 20:59:01.037,-1.46658,1.54932,-0.0214897,0,0,0
 20:59:01.047,-1.4667,1.54931,-0.0214896,0,0,0
 20:59:01.057,-1.46682,1.54931,-0.0214895,0,0,0
 20:59:01.067,-1.46694,1.54931,-0.0214894,0,0,0
 20:59:01.078,-1.46707,1.5496,-0.0214969,0,0,0
 20:59:01.087,-1.46719,1.54959,-0.0214968,0,0,0
 20:59:01.098,-1.4673,1.54959,-0.0214966,0,0,0
 20:59:01.107,-1.46771,1.54958,-0.0214965,0,0,0
 20:59:01.117,-1.46781,1.54957,-0.0214961,0,0,0
 20:59:01.127,-1.46792,1.54956,-0.0214958,0,0,0
 20:59:01.137,-1.46775,1.54956,-0.0214957,0,0,0
 20:59:01.147,-1.46786,1.54954,-0.0214954,0,0,0
 20:59:01.157,-1.46797,1.54925,-0.0214879,0,0,0
 20:59:01.167,-1.46808,1.54925,-0.0214878,0,0,0
 20:59:01.177,-1.46791,1.54924,-0.0214875,0,0,0
 20:59:01.187,-1.46773,1.54924,-0.0214875,0,0,0
 20:59:01.197,-1.46756,1.54924,-0.0214874,0,0,0
 20:59:01.207,-1.46767,1.54894,-0.0214798,0,0,0
 20:59:01.217,-1.46778,1.54893,-0.0214795,0,0,0
 20:59:01.227,-1.46789,1.54893,-0.0214795,0,0,0
 20:59:01.237,-1.46802,1.54894,-0.0214796,0,0,0
 20:59:01.247,-1.46814,1.54894,-0.0214798,0,0,0
 20:59:01.257,-1.46825,1.54894,-0.0214798,0,0,0
 20:59:01.267,-1.46807,1.54893,-0.0214795,0,0,0
 20:59:01.277,-1.46818,1.54893,-0.0214795,0,0,0
 20:59:01.287,-1.46802,1.54894,-0.0214797,0,0,0
 20:59:01.297,-1.46785,1.54923,-0.0214872,0,0,0
 20:59:01.307,-1.46768,1.54951,-0.0214946,0,0,0
 20:59:01.318,-1.46781,1.54981,-0.0215023,0,0,0
 20:59:01.328,-1.46794,1.5501,-0.0215099,0,0,0
 20:59:01.338,-1.46806,1.5501,-0.0215099,0,0,0
 20:59:01.348,-1.46818,1.55011,-0.0215099,0,0,0
 20:59:01.357,-1.46802,1.55011,-0.0215099,0,0,0
 20:59:01.367,-1.46784,1.5501,-0.0215098,0,0,0
 20:59:01.377,-1.46768,1.5501,-0.0215098,0,0,0
 20:59:01.388,-1.46751,1.55009,-0.0215096,0,0,0
 20:59:01.397,-1.46762,1.55008,-0.0215092,0,0,0
 20:59:01.407,-1.46773,1.55035,-0.0215162,0,0,0
 20:59:01.417,-1.46785,1.55035,-0.0215162,0,0,0
 20:59:01.428,-1.46796,1.55005,-0.0215086,0,0,0
 20:59:01.437,-1.46779,1.54976,-0.021501,0,0,0
 20:59:01.447,-1.46791,1.54976,-0.0215011,0,0,0
 20:59:01.458,-1.46803,1.54977,-0.0215011,0,0,0
 20:59:01.467,-1.46816,1.55005,-0.0215086,0,0,0
 20:59:01.477,-1.46828,1.55006,-0.0215088,0,0,0
 20:59:01.488,-1.4684,1.55006,-0.0215088,0,0,0
 20:59:01.497,-1.46852,1.55007,-0.0215088,0,0,0
 20:59:01.508,-1.46864,1.55007,-0.0215088,0,0,0
 20:59:01.517,-1.46876,1.55035,-0.0215162,0,0,0
 20:59:01.527,-1.46859,1.55035,-0.0215162,0,0,0
 20:59:01.538,-1.46842,1.55035,-0.0215162,0,0,0
 20:59:01.547,-1.46825,1.55034,-0.021516,0,0,0
 20:59:01.557,-1.46837,1.55006,-0.0215088,0,0,0
 20:59:01.568,-1.46849,1.55007,-0.0215088,0,0,0
 20:59:01.578,-1.46833,1.54978,-0.0215015,0,0,0
 20:59:01.587,-1.46874,1.54979,-0.0215017,0,0,0
 20:59:01.598,-1.46857,1.54979,-0.0215018,0,0,0
 20:59:01.608,-1.46869,1.55008,-0.0215092,0,0,0
 20:59:01.617,-1.46852,1.55008,-0.0215092,0,0,0
 20:59:01.627,-1.46864,1.55008,-0.0215092,0,0,0
 20:59:01.637,-1.46875,1.55036,-0.0215164,0,0,0
 20:59:01.647,-1.46857,1.55063,-0.0215234,0,0,0
 20:59:01.658,-1.46868,1.55091,-0.0215305,0,0,0
 20:59:01.667,-1.46851,1.5509,-0.0215305,0,0,0
 20:59:01.677,-1.46863,1.55118,-0.0215378,0,0,0
 20:59:01.687,-1.46876,1.55119,-0.021538,0,0,0
 20:59:01.697,-1.46888,1.5512,-0.0215381,0,0,0
 20:59:01.708,-1.469,1.55119,-0.021538,0,0,0
 20:59:01.718,-1.46911,1.55118,-0.0215376,0,0,0
 20:59:01.728,-1.46923,1.55118,-0.0215377,0,0,0
 20:59:01.738,-1.46907,1.55119,-0.0215378,0,0,0
 20:59:01.748,-1.46891,1.55119,-0.0215379,0,0,0
 20:59:01.758,-1.46874,1.55119,-0.021538,0,0,0
 20:59:01.768,-1.46858,1.55119,-0.0215379,0,0,0
 20:59:01.778,-1.46841,1.55118,-0.0215378,0,0,0
 20:59:01.788,-1.46824,1.55118,-0.0215377,0,0,0
 20:59:01.798,-1.4678,1.55118,-0.0215378,0,0,0
 20:59:01.808,-1.46763,1.55118,-0.0215377,0,0,0
 20:59:01.818,-1.46776,1.55117,-0.0215376,0,0,0
 20:59:01.827,-1.46816,1.55117,-0.0215374,0,0,0
 20:59:01.838,-1.46829,1.55146,-0.0215449,0,0,0
 20:59:01.848,-1.46841,1.55174,-0.0215521,0,0,0
 20:59:01.858,-1.46882,1.55173,-0.0215519,0,0,0
 20:59:01.868,-1.46865,1.55172,-0.0215517,0,0,0
 20:59:01.878,-1.46819,1.552,-0.0215589,0,0,0
 20:59:01.888,-1.46802,1.55198,-0.0215585,0,0,0
 20:59:01.897,-1.46785,1.55197,-0.0215581,0,0,0
 20:59:01.908,-1.46797,1.55196,-0.0215579,0,0,0
 20:59:01.918,-1.46753,1.55196,-0.0215579,0,0,0
 20:59:01.928,-1.46794,1.55195,-0.0215576,0,0,0
 20:59:01.939,-1.46806,1.55194,-0.0215574,0,0,0
 20:59:01.948,-1.46817,1.55192,-0.021557,0,0,0
 20:59:01.957,-1.46829,1.5522,-0.0215641,0,0,0
 20:59:01.968,-1.46785,1.55249,-0.0215715,0,0,0
 20:59:01.978,-1.46826,1.55277,-0.0215788,0,0,0
 20:59:01.988,-1.46809,1.55276,-0.0215785,0,0,0
 20:59:01.998,-1.46793,1.55274,-0.0215782,0,0,0
 20:59:02.008,-1.46833,1.55272,-0.0215776,0,0,0
 20:59:02.019,-1.46759,1.55242,-0.02157,0,0,0
 20:59:02.029,-1.46828,1.55269,-0.0215768,0,0,0
 20:59:02.038,-1.46725,1.55239,-0.021569,0,0,0
 20:59:02.049,-1.46736,1.55264,-0.0215757,0,0,0
 20:59:02.059,-1.46719,1.55262,-0.0215752,0,0,0
 20:59:02.069,-1.46702,1.55289,-0.0215821,0,0,0
 20:59:02.078,-1.46743,1.55316,-0.0215891,0,0,0
 20:59:02.088,-1.46726,1.55314,-0.0215885,0,0,0
 20:59:02.098,-1.46766,1.55311,-0.0215877,0,0,0
 20:59:02.109,-1.4675,1.55281,-0.02158,0,0,0
 20:59:02.119,-1.46763,1.55252,-0.0215724,0,0,0
 20:59:02.129,-1.46804,1.55223,-0.0215649,0,0,0
 20:59:02.138,-1.46759,1.55193,-0.0215573,0,0,0
 20:59:02.148,-1.46773,1.55223,-0.0215649,0,0,0
 20:59:02.158,-1.46729,1.55251,-0.0215723,0,0,0
 20:59:02.168,-1.46771,1.55279,-0.0215795,0,0,0
 20:59:02.178,-1.46784,1.55307,-0.0215868,0,0,0
 20:59:02.188,-1.46767,1.55335,-0.0215938,0,0,0
 20:59:02.199,-1.46778,1.55332,-0.021593,0,0,0
 20:59:02.209,-1.46761,1.55329,-0.0215924,0,0,0
 20:59:02.219,-1.46772,1.55355,-0.0215992,0,0,0
 20:59:02.229,-1.46784,1.55382,-0.0216059,0,0,0
 20:59:02.239,-1.46767,1.5538,-0.0216055,0,0,0
 20:59:02.248,-1.4675,1.55406,-0.0216122,0,0,0
 20:59:02.259,-1.46733,1.55402,-0.0216114,0,0,0
 20:59:02.268,-1.46744,1.554,-0.0216107,0,0,0
 20:59:02.278,-1.46756,1.55397,-0.02161,0,0,0
 20:59:02.288,-1.46768,1.55394,-0.0216093,0,0,0
 20:59:02.298,-1.4678,1.55421,-0.0216162,0,0,0
 20:59:02.308,-1.46763,1.55447,-0.0216229,0,0,0
 20:59:02.318,-1.46746,1.55444,-0.0216221,0,0,0
 20:59:02.328,-1.46757,1.55441,-0.0216214,0,0,0
 20:59:02.338,-1.46712,1.55438,-0.0216207,0,0,0
 20:59:02.349,-1.46724,1.55435,-0.0216199,0,0,0
 20:59:02.359,-1.46707,1.55433,-0.0216192,0,0,0
 20:59:02.368,-1.46719,1.5543,-0.0216187,0,0,0
 20:59:02.378,-1.46732,1.554,-0.0216107,0,0,0
 20:59:02.389,-1.46744,1.55397,-0.0216101,0,0,0
 20:59:02.398,-1.46727,1.55395,-0.0216094,0,0,0
 20:59:02.409,-1.4674,1.55365,-0.0216017,0,0,0
 20:59:02.419,-1.46696,1.55364,-0.0216015,0,0,0
 20:59:02.429,-1.46709,1.55335,-0.0215939,0,0,0
 20:59:02.438,-1.46637,1.55334,-0.0215937,0,0,0
 20:59:02.449,-1.46651,1.55333,-0.0215935,0,0,0
 20:59:02.459,-1.46663,1.55331,-0.0215931,0,0,0
 20:59:02.469,-1.46676,1.5533,-0.0215927,0,0,0
 20:59:02.479,-1.46661,1.55329,-0.0215925,0,0,0
 20:59:02.489,-1.46645,1.55356,-0.0215995,0,0,0
 20:59:02.498,-1.46657,1.55354,-0.0215989,0,0,0
 20:59:02.508,-1.4664,1.55351,-0.0215981,0,0,0
 20:59:02.519,-1.46652,1.55377,-0.0216048,0,0,0
 20:59:02.529,-1.46664,1.55373,-0.021604,0,0,0
 20:59:02.539,-1.46674,1.55369,-0.0216029,0,0,0
 20:59:02.548,-1.46657,1.55338,-0.0215947,0,0,0
 20:59:02.558,-1.46668,1.55334,-0.0215939,0,0,0
 20:59:02.569,-1.46681,1.55333,-0.0215935,0,0,0
 20:59:02.579,-1.46693,1.55331,-0.0215929,0,0,0
 20:59:02.589,-1.46704,1.55356,-0.0215994,0,0,0
 20:59:02.599,-1.46687,1.55382,-0.0216062,0,0,0
 20:59:02.609,-1.467,1.55409,-0.0216131,0,0,0
 20:59:02.619,-1.46683,1.55435,-0.0216198,0,0,0
 20:59:02.629,-1.46667,1.55432,-0.0216191,0,0,0
 20:59:02.639,-1.46708,1.5543,-0.0216185,0,0,0
 20:59:02.649,-1.46692,1.55428,-0.021618,0,0,0
 20:59:02.659,-1.46677,1.55398,-0.0216103,0,0,0
 20:59:02.669,-1.4669,1.55397,-0.02161,0,0,0
 20:59:02.679,-1.46674,1.55395,-0.0216095,0,0,0
 20:59:02.689,-1.46688,1.55394,-0.0216093,0,0,0
 20:59:02.699,-1.467,1.55392,-0.0216088,0,0,0
 20:59:02.709,-1.46684,1.5539,-0.0216081,0,0,0
 20:59:02.719,-1.46667,1.55416,-0.0216148,0,0,0
 20:59:02.729,-1.4665,1.5544,-0.0216213,0,0,0
 20:59:02.739,-1.46633,1.55437,-0.0216204,0,0,0
 20:59:02.749,-1.46616,1.55463,-0.021627,0,0,0
 20:59:02.759,-1.4657,1.55458,-0.0216259,0,0,0
 20:59:02.769,-1.46582,1.55454,-0.0216249,0,0,0
 20:59:02.779,-1.46566,1.55451,-0.0216242,0,0,0
 20:59:02.789,-1.46578,1.55449,-0.0216234,0,0,0
 20:59:02.799,-1.46591,1.55446,-0.0216227,0,0,0
 20:59:02.809,-1.46575,1.55471,-0.0216293,0,0,0
 20:59:02.819,-1.46587,1.55468,-0.0216285,0,0,0
 20:59:02.829,-1.46571,1.55465,-0.0216278,0,0,0
 20:59:02.839,-1.46583,1.55491,-0.0216344,0,0,0
 20:59:02.849,-1.46567,1.55488,-0.0216336,0,0,0
 20:59:02.860,-1.4658,1.55485,-0.0216328,0,0,0
 20:59:02.870,-1.46592,1.55482,-0.021632,0,0,0
 20:59:02.879,-1.46605,1.55508,-0.0216388,0,0,0
 20:59:02.889,-1.4659,1.55505,-0.0216381,0,0,0
 20:59:02.899,-1.46603,1.55503,-0.0216375,0,0,0
 20:59:02.909,-1.46588,1.55473,-0.0216297,0,0,0
 20:59:02.919,-1.46601,1.55442,-0.0216218,0,0,0
 20:59:02.929,-1.46614,1.5544,-0.0216212,0,0,0
 20:59:02.940,-1.46628,1.55467,-0.0216282,0,0,0
 20:59:02.950,-1.4667,1.55494,-0.021635,0,0,0
 20:59:02.960,-1.46653,1.55491,-0.0216342,0,0,0
 20:59:02.969,-1.46637,1.55487,-0.0216334,0,0,0
 20:59:02.979,-1.46649,1.55484,-0.0216326,0,0,0
 20:59:02.990,-1.46632,1.55509,-0.021639,0,0,0
 20:59:03.000,-1.46615,1.55534,-0.0216456,0,0,0
 20:59:03.010,-1.46599,1.55531,-0.0216447,0,0,0
 20:59:03.019,-1.46611,1.55528,-0.0216439,0,0,0
 20:59:03.029,-1.46624,1.55553,-0.0216504,0,0,0
 20:59:03.039,-1.46607,1.55549,-0.0216493,0,0,0
 20:59:03.049,-1.46562,1.55545,-0.0216485,0,0,0
 20:59:03.059,-1.46546,1.55542,-0.0216476,0,0,0
 20:59:03.069,-1.4653,1.5551,-0.0216394,0,0,0
 20:59:03.080,-1.46543,1.55507,-0.0216386,0,0,0
 20:59:03.089,-1.46555,1.55503,-0.0216375,0,0,0
 20:59:03.099,-1.46538,1.55499,-0.0216365,0,0,0
 20:59:03.110,-1.46521,1.55495,-0.0216355,0,0,0
 20:59:03.120,-1.46505,1.55492,-0.0216347,0,0,0
 20:59:03.129,-1.46519,1.5549,-0.0216341,0,0,0
 20:59:03.140,-1.46505,1.55488,-0.0216338,0,0,0
 20:59:03.150,-1.46519,1.55487,-0.0216333,0,0,0
 20:59:03.159,-1.46504,1.55484,-0.0216328,0,0,0
 20:59:03.169,-1.46518,1.55482,-0.0216322,0,0,0
 20:59:03.179,-1.46502,1.55479,-0.0216314,0,0,0
 20:59:03.189,-1.46515,1.55476,-0.0216306,0,0,0
 20:59:03.200,-1.46527,1.55501,-0.021637,0,0,0
 20:59:03.210,-1.4651,1.55497,-0.021636,0,0,0
 20:59:03.220,-1.46523,1.55465,-0.0216278,0,0,0
 20:59:03.230,-1.46506,1.55433,-0.0216195,0,0,0
 20:59:03.239,-1.4649,1.55429,-0.0216185,0,0,0
 20:59:03.249,-1.46502,1.55426,-0.0216176,0,0,0
 20:59:03.259,-1.46514,1.55451,-0.021624,0,0,0
 20:59:03.269,-1.46527,1.55448,-0.0216233,0,0,0
 20:59:03.280,-1.4654,1.55445,-0.0216225,0,0,0
 20:59:03.289,-1.46552,1.5547,-0.0216289,0,0,0
 20:59:03.300,-1.46564,1.55467,-0.0216281,0,0,0
 20:59:03.310,-1.46576,1.55463,-0.0216272,0,0,0
 20:59:03.320,-1.46559,1.55431,-0.0216188,0,0,0
 20:59:03.330,-1.46572,1.55428,-0.0216181,0,0,0
 20:59:03.340,-1.46556,1.55425,-0.0216174,0,0,0
 20:59:03.350,-1.46539,1.55421,-0.0216165,0,0,0
 20:59:03.360,-1.4658,1.55447,-0.0216231,0,0,0
 20:59:03.370,-1.46593,1.55444,-0.0216224,0,0,0
 20:59:03.379,-1.46576,1.55441,-0.0216214,0,0,0
 20:59:03.390,-1.46588,1.55466,-0.0216281,0,0,0
 20:59:03.400,-1.466,1.55463,-0.0216273,0,0,0
 20:59:03.410,-1.46613,1.5546,-0.0216265,0,0,0
 20:59:03.420,-1.46596,1.55428,-0.0216182,0,0,0
 20:59:03.430,-1.46579,1.55453,-0.0216246,0,0,0
 20:59:03.440,-1.46591,1.55478,-0.021631,0,0,0
 20:59:03.450,-1.46603,1.55475,-0.0216303,0,0,0
 20:59:03.460,-1.46615,1.55472,-0.0216295,0,0,0
 20:59:03.470,-1.46599,1.55497,-0.0216361,0,0,0
 20:59:03.480,-1.46612,1.55495,-0.0216354,0,0,0
 20:59:03.490,-1.46624,1.55492,-0.0216346,0,0,0
 20:59:03.500,-1.46637,1.55517,-0.0216412,0,0,0
 20:59:03.510,-1.4662,1.55543,-0.0216477,0,0,0
 20:59:03.520,-1.46632,1.55568,-0.0216542,0,0,0
 20:59:03.530,-1.46615,1.55564,-0.0216532,0,0,0
 20:59:03.540,-1.46598,1.55559,-0.0216521,0,0,0
 20:59:03.550,-1.46582,1.55556,-0.0216512,0,0,0
 20:59:03.560,-1.46595,1.55581,-0.0216577,0,0,0
 20:59:03.569,-1.46607,1.55577,-0.0216567,0,0,0
 20:59:03.580,-1.46619,1.55573,-0.0216556,0,0,0
 20:59:03.590,-1.46631,1.5557,-0.0216547,0,0,0
 20:59:03.600,-1.46616,1.55568,-0.0216542,0,0,0
 20:59:03.610,-1.46629,1.55565,-0.0216535,0,0,0
 20:59:03.620,-1.46642,1.55562,-0.0216528,0,0,0
 20:59:03.630,-1.46655,1.5556,-0.0216521,0,0,0
 20:59:03.640,-1.46668,1.55557,-0.0216514,0,0,0
 20:59:03.650,-1.4668,1.55554,-0.0216507,0,0,0
 20:59:03.660,-1.46692,1.55551,-0.0216498,0,0,0
 20:59:03.670,-1.46704,1.55547,-0.0216489,0,0,0
 20:59:03.680,-1.46687,1.55544,-0.021648,0,0,0
 20:59:03.690,-1.46671,1.55541,-0.0216472,0,0,0
 20:59:03.700,-1.46654,1.55537,-0.0216463,0,0,0
 20:59:03.710,-1.46666,1.55563,-0.0216528,0,0,0
 20:59:03.720,-1.46678,1.55587,-0.0216591,0,0,0
 20:59:03.730,-1.4666,1.55582,-0.021658,0,0,0
 20:59:03.740,-1.46672,1.55578,-0.0216569,0,0,0
 20:59:03.750,-1.46684,1.55575,-0.0216561,0,0,0
 20:59:03.761,-1.46668,1.556,-0.0216626,0,0,0
 20:59:03.770,-1.4668,1.55597,-0.0216617,0,0,0
 20:59:03.780,-1.46662,1.55621,-0.0216679,0,0,0
 20:59:03.791,-1.46674,1.55616,-0.0216667,0,0,0
 20:59:03.801,-1.46656,1.5564,-0.0216729,0,0,0
 20:59:03.810,-1.46668,1.55636,-0.0216717,0,0,0
 20:59:03.820,-1.4665,1.55631,-0.0216706,0,0,0
 20:59:03.830,-1.46662,1.55626,-0.0216694,0,0,0
 20:59:03.840,-1.46674,1.55623,-0.0216684,0,0,0
 20:59:03.851,-1.46657,1.55647,-0.0216746,0,0,0
 20:59:03.861,-1.46668,1.55642,-0.0216734,0,0,0
 20:59:03.871,-1.46679,1.55637,-0.0216722,0,0,0
 20:59:03.880,-1.4669,1.55633,-0.021671,0,0,0
 20:59:03.890,-1.46674,1.556,-0.0216626,0,0,0
 20:59:03.900,-1.46714,1.55625,-0.021669,0,0,0
 20:59:03.911,-1.46697,1.55621,-0.0216681,0,0,0
 20:59:03.921,-1.4671,1.55618,-0.0216673,0,0,0
 20:59:03.931,-1.46694,1.55616,-0.0216665,0,0,0
 20:59:03.940,-1.46706,1.55612,-0.0216656,0,0,0
 20:59:03.950,-1.4669,1.55609,-0.0216648,0,0,0
 20:59:03.961,-1.46731,1.55606,-0.021664,0,0,0
 20:59:03.971,-1.46715,1.55603,-0.0216633,0,0,0
 20:59:03.981,-1.46727,1.556,-0.0216625,0,0,0
 20:59:03.990,-1.46711,1.55597,-0.0216618,0,0,0
 20:59:04.000,-1.46695,1.55595,-0.0216611,0,0,0
 20:59:04.011,-1.46679,1.55592,-0.0216604,0,0,0
 20:59:04.021,-1.46663,1.55588,-0.0216594,0,0,0
 20:59:04.030,-1.46675,1.55584,-0.0216585,0,0,0
 20:59:04.040,-1.46658,1.55581,-0.0216576,0,0,0
 20:59:04.051,-1.46698,1.55577,-0.0216564,0,0,0
 20:59:04.060,-1.46681,1.55573,-0.0216556,0,0,0
 20:59:04.070,-1.46664,1.55569,-0.0216545,0,0,0
 20:59:04.080,-1.46647,1.55593,-0.0216607,0,0,0
 20:59:04.090,-1.46658,1.55589,-0.0216596,0,0,0
 20:59:04.101,-1.46641,1.55584,-0.0216585,0,0,0
 20:59:04.110,-1.46625,1.55609,-0.021665,0,0,0
 20:59:04.121,-1.46608,1.55606,-0.021664,0,0,0
 20:59:04.131,-1.46621,1.5563,-0.0216704,0,0,0
 20:59:04.140,-1.46633,1.55627,-0.0216694,0,0,0
 20:59:04.151,-1.46645,1.55623,-0.0216684,0,0,0
 20:59:04.161,-1.46657,1.55619,-0.0216675,0,0,0
 20:59:04.171,-1.4664,1.55615,-0.0216663,0,0,0
 20:59:04.181,-1.46652,1.55639,-0.0216727,0,0,0
 20:59:04.191,-1.46636,1.55636,-0.0216717,0,0,0
 20:59:04.201,-1.46619,1.5566,-0.0216781,0,0,0
 20:59:04.211,-1.46604,1.55657,-0.0216773,0,0,0
 20:59:04.221,-1.46587,1.55653,-0.0216763,0,0,0
 20:59:04.231,-1.46543,1.55649,-0.0216754,0,0,0
 20:59:04.241,-1.46555,1.55645,-0.0216741,0,0,0
 20:59:04.251,-1.46567,1.55668,-0.0216803,0,0,0
 20:59:04.261,-1.46579,1.55693,-0.0216866,0,0,0
 20:59:04.271,-1.46619,1.55688,-0.0216853,0,0,0
 20:59:04.281,-1.46631,1.55683,-0.0216841,0,0,0
 20:59:04.291,-1.46643,1.55708,-0.0216904,0,0,0
 20:59:04.301,-1.46626,1.55704,-0.0216893,0,0,0
 20:59:04.311,-1.46639,1.55728,-0.0216956,0,0,0
 20:59:04.321,-1.46652,1.55724,-0.0216947,0,0,0
 20:59:04.331,-1.46664,1.5572,-0.0216936,0,0,0
 20:59:04.341,-1.46647,1.55716,-0.0216925,0,0,0
 20:59:04.351,-1.46631,1.55712,-0.0216914,0,0,0
 20:59:04.361,-1.46614,1.55707,-0.0216903,0,0,0
 20:59:04.371,-1.46598,1.55703,-0.0216893,0,0,0
 20:59:04.382,-1.46583,1.557,-0.0216884,0,0,0
 20:59:04.392,-1.46596,1.55697,-0.0216875,0,0,0
 20:59:04.402,-1.46608,1.55692,-0.0216865,0,0,0
 20:59:04.411,-1.46592,1.55688,-0.0216854,0,0,0
 20:59:04.421,-1.46604,1.55684,-0.0216843,0,0,0
 20:59:04.431,-1.46617,1.55652,-0.0216759,0,0,0
 20:59:04.442,-1.46658,1.55648,-0.0216751,0,0,0
 20:59:04.451,-1.46643,1.55675,-0.0216819,0,0,0
 20:59:04.461,-1.46657,1.55701,-0.0216886,0,0,0
 20:59:04.471,-1.46641,1.55697,-0.0216878,0,0,0
 20:59:04.481,-1.46683,1.55694,-0.0216869,0,0,0
 20:59:04.491,-1.46694,1.5569,-0.0216858,0,0,0
 20:59:04.501,-1.46708,1.55659,-0.0216777,0,0,0
 20:59:04.511,-1.4672,1.55627,-0.0216695,0,0,0
 20:59:04.521,-1.46704,1.55653,-0.0216761,0,0,0
 20:59:04.531,-1.46688,1.5565,-0.0216753,0,0,0
 20:59:04.542,-1.46672,1.55646,-0.0216743,0,0,0
 20:59:04.552,-1.46684,1.55642,-0.0216733,0,0,0
 20:59:04.562,-1.46696,1.55639,-0.0216725,0,0,0
 20:59:04.571,-1.46681,1.55636,-0.0216719,0,0,0
 20:59:04.581,-1.46695,1.55634,-0.0216713,0,0,0
 20:59:04.591,-1.46679,1.5566,-0.021678,0,0,0
 20:59:04.601,-1.4672,1.55685,-0.0216845,0,0,0
 20:59:04.612,-1.46703,1.55681,-0.0216834,0,0,0
 20:59:04.621,-1.46713,1.55675,-0.021682,0,0,0
 20:59:04.631,-1.46696,1.55671,-0.0216808,0,0,0
 20:59:04.641,-1.46679,1.55666,-0.0216795,0,0,0
 20:59:04.652,-1.46661,1.55661,-0.0216783,0,0,0
 20:59:04.662,-1.46645,1.55657,-0.0216773,0,0,0
 20:59:04.671,-1.46656,1.55652,-0.0216761,0,0,0
 20:59:04.681,-1.4664,1.5562,-0.0216677,0,0,0
 20:59:04.691,-1.4665,1.55615,-0.0216664,0,0,0
 20:59:04.701,-1.46633,1.5561,-0.0216652,0,0,0
 20:59:04.711,-1.46616,1.55606,-0.0216641,0,0,0
 20:59:04.721,-1.466,1.55631,-0.0216705,0,0,0
 20:59:04.731,-1.46584,1.55655,-0.0216769,0,0,0
 20:59:04.741,-1.46568,1.55651,-0.0216759,0,0,0
 20:59:04.751,-1.46552,1.55648,-0.0216749,0,0,0
 20:59:04.761,-1.46564,1.55644,-0.0216739,0,0,0
 20:59:04.771,-1.46549,1.55641,-0.0216731,0,0,0
 20:59:04.782,-1.46534,1.55638,-0.0216723,0,0,0
 20:59:04.791,-1.46489,1.55605,-0.021664,0,0,0
 20:59:04.801,-1.4653,1.55629,-0.0216702,0,0,0
 20:59:04.812,-1.46513,1.55625,-0.021669,0,0,0
 20:59:04.821,-1.46526,1.55621,-0.0216681,0,0,0
 20:59:04.831,-1.46539,1.55617,-0.0216671,0,0,0
 20:59:04.842,-1.46551,1.55613,-0.0216659,0,0,0
 20:59:04.852,-1.46534,1.55608,-0.0216648,0,0,0
 20:59:04.862,-1.46518,1.55604,-0.0216638,0,0,0
 20:59:04.872,-1.46531,1.55601,-0.0216629,0,0,0
 20:59:04.882,-1.46572,1.55597,-0.0216619,0,0,0
 20:59:04.891,-1.46556,1.55593,-0.021661,0,0,0
 20:59:04.901,-1.46569,1.5559,-0.02166,0,0,0
 20:59:04.911,-1.46581,1.55586,-0.0216591,0,0,0
 20:59:04.921,-1.46593,1.55582,-0.0216579,0,0,0
 20:59:04.931,-1.46577,1.55579,-0.0216572,0,0,0
 20:59:04.941,-1.4659,1.55576,-0.0216563,0,0,0
 20:59:04.952,-1.46574,1.55544,-0.021648,0,0,0
 20:59:04.962,-1.46586,1.5554,-0.0216472,0,0,0
 20:59:04.972,-1.46571,1.55538,-0.0216465,0,0,0
 20:59:04.982,-1.46555,1.55534,-0.0216457,0,0,0
 20:59:04.992,-1.46595,1.55559,-0.0216519,0,0,0
 20:59:05.002,-1.46579,1.55555,-0.0216511,0,0,0
 20:59:05.012,-1.46619,1.5558,-0.0216573,0,0,0
 20:59:05.022,-1.46602,1.55604,-0.0216636,0,0,0
 20:59:05.032,-1.46585,1.55599,-0.0216624,0,0,0
 20:59:05.042,-1.46597,1.55595,-0.0216613,0,0,0
 20:59:05.053,-1.46608,1.5559,-0.0216601,0,0,0
 20:59:05.062,-1.46621,1.55588,-0.0216594,0,0,0
 20:59:05.072,-1.46577,1.55585,-0.0216587,0,0,0
 20:59:05.082,-1.46561,1.5558,-0.0216576,0,0,0
 20:59:05.092,-1.46545,1.55605,-0.0216641,0,0,0
 20:59:05.102,-1.465,1.5563,-0.0216705,0,0,0
 20:59:05.112,-1.46541,1.55655,-0.0216769,0,0,0
 20:59:05.122,-1.46554,1.5568,-0.0216832,0,0,0
 20:59:05.132,-1.46539,1.55705,-0.0216898,0,0,0
 20:59:05.142,-1.46609,1.5573,-0.0216962,0,0,0
 20:59:05.152,-1.46565,1.55727,-0.0216953,0,0,0
 20:59:05.162,-1.46578,1.55722,-0.0216942,0,0,0
 20:59:05.172,-1.46533,1.55718,-0.0216932,0,0,0
 20:59:05.182,-1.46573,1.55742,-0.0216992,0,0,0
 20:59:05.192,-1.46528,1.55736,-0.0216979,0,0,0
 20:59:05.202,-1.46512,1.5576,-0.021704,0,0,0
 20:59:05.212,-1.46495,1.55755,-0.0217026,0,0,0
 20:59:05.222,-1.46508,1.5575,-0.0217015,0,0,0
 20:59:05.232,-1.46578,1.55746,-0.0217003,0,0,0
 20:59:05.242,-1.46477,1.55742,-0.0216994,0,0,0
 20:59:05.252,-1.46162,1.55825,-0.0210289,0,0,0
 20:59:05.262,-1.4609,1.55819,-0.0210276,0,0,0
 20:59:05.272,-1.45991,1.55842,-0.0210336,0,0,0
 20:59:05.283,-1.4613,1.55804,-0.0210895,0,0,0
 20:59:05.293,-1.4642,1.55706,-0.0211786,0,0,0
 20:59:05.303,-1.4668,1.55731,-0.0212682,0,0,0
 20:59:05.313,-1.47087,1.55693,-0.0207644,0,0,0
 20:59:05.322,-1.47343,1.55628,-0.02022,0,0,0
 20:59:05.332,-1.47473,1.55653,-0.0202597,0,0,0
 20:59:05.342,-1.47603,1.5565,-0.0202921,0,0,0
 20:59:05.352,-1.47497,1.55618,-0.020284,0,0,0
 20:59:05.362,-1.47419,1.55614,-0.0202831,0,0,0
 20:59:05.372,-1.47435,1.55578,-0.0203229,0,0,0
 20:59:05.383,-1.4781,1.55481,-0.0198191,0,0,0
 20:59:05.392,-1.48483,1.55295,-0.0193744,0,0,0
 20:59:05.402,-1.49153,1.5511,-0.0189298,0,0,0
 20:59:05.412,-1.49609,1.54986,-0.0184354,0,0,0
 20:59:05.422,-1.49824,1.54864,-0.0185181,0,0,0
 20:59:05.432,-1.49887,1.54891,-0.0179488,0,0,0
 20:59:05.443,-1.50127,1.54917,-0.0174122,0,0,0
 20:59:05.452,-1.50366,1.54857,-0.0168531,0,0,0
 20:59:05.462,-1.50541,1.54828,-0.0168949,0,0,0
 20:59:05.472,-1.50569,1.54828,-0.016928,0,0,0
 20:59:05.482,-1.50539,1.54734,-0.0169684,0,0,0
 20:59:05.492,-1.51017,1.5458,-0.0171081,0,0,0
 20:59:05.502,-1.51587,1.54339,-0.0172736,0,0,0
 20:59:05.512,-1.51894,1.54214,-0.0168279,0,0,0
 20:59:05.523,-1.52305,1.54115,-0.0164878,0,0,0
 20:59:05.532,-1.53203,1.53917,-0.0163185,0,0,0
 20:59:05.542,-1.55428,1.53478,-0.016362,0,0,0
 20:59:05.553,-1.58072,1.52662,-0.0127408,0,0,0
 20:59:05.563,-1.60179,1.52483,0.00266217,0,0,0
 20:59:05.572,-1.61884,1.52108,0.01522,0,0,0
 20:59:05.582,-1.63196,1.51781,0.0222854,0,0,0
 20:59:05.592,-1.64012,1.51669,0.0244941,0,0,0
 20:59:05.602,-1.64655,1.51525,0.0260682,0,0,0
 20:59:05.612,-1.65154,1.51557,0.0294543,0,0,0
 20:59:05.623,-1.65359,1.51848,0.0359305,0,0,0
 20:59:05.633,-1.63639,1.5228,0.0483823,0,0,0
 20:59:05.642,-1.60084,1.5285,0.0686694,0,0,0
 20:59:05.652,-1.58936,1.5305,0.0926274,0,0,0
 20:59:05.662,-1.59778,1.53345,0.122256,0,0,0
 20:59:05.672,-1.62213,1.53437,0.154746,0,0,0
 20:59:05.682,-1.64757,1.53799,0.182523,0,0,0
 20:59:05.693,-1.6825,1.5422,0.194942,0,0,0
 20:59:05.703,-1.71189,1.54094,0.184261,0,0,0
 20:59:05.712,-1.72179,1.53119,0.146391,0,0,0
 20:59:05.723,-1.67413,1.51847,0.0962376,0,0,0
 20:59:05.733,-1.54392,1.51568,0.0589583,0,0,0
 20:59:05.743,-1.35636,1.53671,0.0531713,0,0,0
 20:59:05.753,-1.13662,1.58101,0.0810877,0,0,0
 20:59:05.763,-0.915629,1.64559,0.123428,0,0,0
 20:59:05.773,-0.700422,1.73902,0.166228,0,0,0
 20:59:05.783,-0.516741,1.85118,0.212423,0,0,0
 20:59:05.793,-0.386532,1.97335,0.268753,0,0,0
 20:59:05.803,-0.30182,2.09782,0.339691,0,0,0
 20:59:05.813,-0.247556,2.21161,0.422639,0,0,0
 20:59:05.823,-0.231405,2.30103,0.511258,0,0,0
 20:59:05.833,-0.25125,2.36255,0.597097,0,0,0
 20:59:05.843,-0.296529,2.3975,0.668374,0,0,0
 20:59:05.853,-0.335338,2.40682,0.709706,0,0,0
 20:59:05.863,-0.350557,2.39109,0.71003,0,0,0
 20:59:05.874,-0.350217,2.34396,0.653311,0,0,0
 20:59:05.883,-0.342587,2.25787,0.53925,0,0,0
 20:59:05.893,-0.337777,2.13644,0.393668,0,0,0
 20:59:05.903,-0.343383,1.99256,0.261191,0,0,0
 20:59:05.913,-0.354342,1.84735,0.180288,0,0,0
 20:59:05.923,-0.387765,1.72638,0.170358,0,0,0
 20:59:05.933,-0.464058,1.64257,0.227506,0,0,0
 20:59:05.943,-0.580542,1.59297,0.323828,0,0,0
 20:59:05.953,-0.71936,1.56231,0.417702,0,0,0
 20:59:05.963,-0.824673,1.53215,0.475583,0,0,0
 20:59:05.973,-0.849359,1.49503,0.479965,0,0,0
 20:59:05.983,-0.804232,1.45386,0.428454,0,0,0
 20:59:05.994,-0.714729,1.42114,0.336715,0,0,0
 20:59:06.004,-0.6115,1.40705,0.234522,0,0,0
 20:59:06.013,-0.526877,1.41773,0.157868,0,0,0
 20:59:06.024,-0.483436,1.45249,0.137606,0,0,0
 20:59:06.033,-0.482476,1.50178,0.181238,0,0,0
 20:59:06.044,-0.521447,1.55243,0.265027,0,0,0
 20:59:06.054,-0.595254,1.59256,0.353593,0,0,0
 20:59:06.063,-0.676463,1.61371,0.418293,0,0,0
 20:59:06.074,-0.741783,1.61392,0.439571,0,0,0
 20:59:06.084,-0.764112,1.59524,0.416959,0,0,0
 20:59:06.094,-0.699893,1.56225,0.361776,0,0,0
 20:59:06.104,-0.53801,1.52601,0.293683,0,0,0
 20:59:06.113,-0.335777,1.49498,0.224551,0,0,0
 20:59:06.123,-0.15086,1.46728,0.158412,0,0,0
 20:59:06.134,-0.0019898,1.43841,0.0990804,0,0,0
 20:59:06.144,0.130717,1.40496,0.0538298,0,0,0
 20:59:06.154,0.283102,1.36676,0.0277388,0,0,0
 20:59:06.164,0.458227,1.32769,0.0234483,0,0,0
 20:59:06.174,0.645078,1.29308,0.0427126,0,0,0
 20:59:06.183,0.835848,1.26069,0.0744591,0,0,0
 20:59:06.193,1.02179,1.22088,0.0855014,0,0,0
 20:59:06.203,1.25789,1.16638,0.0436711,0,0,0
 20:59:06.213,1.60494,1.10024,-0.0635218,0,0,0
 20:59:06.223,2.06787,1.02557,-0.228319,0,0,0
 20:59:06.233,2.60584,0.9362,-0.43288,0,0,0
 20:59:06.244,3.1606,0.829444,-0.64651,0,0,0
 20:59:06.253,3.69451,0.707677,-0.833777,0,0,0
 20:59:06.263,4.18585,0.584405,-0.966304,0,0,0
 20:59:06.273,4.61304,0.479788,-1.03995,0,0,0
 20:59:06.284,4.96905,0.409559,-1.07176,0,0,0
 20:59:06.293,5.25954,0.374113,-1.10168,0,0,0
 20:59:06.304,5.51715,0.349057,-1.16734,0,0,0
 20:59:06.314,5.7949,0.307308,-1.29722,0,0,0
 20:59:06.324,6.1432,0.232076,-1.49897,0,0,0
 20:59:06.334,6.57055,0.123486,-1.76034,0,0,0
 20:59:06.343,7.04759,-0.00777727,-2.05667,0,0,0
 20:59:06.353,7.54245,-0.145725,-2.35077,0,0,0
 20:59:06.363,8.03207,-0.27319,-2.60889,0,0,0
 20:59:06.373,8.49654,-0.373106,-2.80478,0,0,0
 20:59:06.383,8.91664,-0.437811,-2.92057,0,0,0
 20:59:06.394,9.30036,-0.477897,-2.97511,0,0,0
 20:59:06.404,9.66507,-0.517058,-3.02816,0,0,0
 20:59:06.413,10.0182,-0.58582,-3.13928,0,0,0
 20:59:06.424,10.3777,-0.70534,-3.33909,0,0,0
 20:59:06.433,10.7746,-0.881394,-3.6296,0,0,0
 20:59:06.443,11.2406,-1.09543,-3.983,0,0,0
 20:59:06.453,11.7729,-1.31957,-4.35221,0,0,0
 20:59:06.464,12.3249,-1.52536,-4.68487,0,0,0
 20:59:06.474,12.8434,-1.69628,-4.94407,0,0,0
 20:59:06.484,13.3442,-1.82648,-5.13589,0,0,0
 20:59:06.493,13.8661,-1.9179,-5.29636,0,0,0
 20:59:06.504,14.3839,-1.98669,-5.4639,0,0,0
 20:59:06.513,14.8801,-2.05938,-5.6694,0,0,0
 20:59:06.524,15.3892,-2.15575,-5.93953,0,0,0
 20:59:06.533,15.9542,-2.27647,-6.28568,0,0,0
 20:59:06.543,16.5795,-2.41039,-6.69182,0,0,0
 20:59:06.554,17.2243,-2.54138,-7.1165,0,0,0
 20:59:06.564,17.8418,-2.64981,-7.51036,0,0,0
 20:59:06.574,18.4142,-2.71501,-7.84014,0,0,0
 20:59:06.584,18.937,-2.72461,-8.1038,0,0,0
 20:59:06.594,19.4389,-2.69175,-8.32122,0,0,0
 20:59:06.604,19.9369,-2.64179,-8.50539,0,0,0
 20:59:06.614,20.3989,-2.60315,-8.65874,0,0,0
 20:59:06.624,20.8004,-2.59926,-8.78878,0,0,0
 20:59:06.634,21.1492,-2.63913,-8.9139,0,0,0
 20:59:06.644,21.4784,-2.71691,-9.05582,0,0,0
 20:59:06.654,21.8257,-2.82769,-9.23157,0,0,0
 20:59:06.664,22.2047,-2.95547,-9.44157,0,0,0
 20:59:06.674,22.6304,-3.07872,-9.67066,0,0,0
 20:59:06.684,23.1023,-3.1798,-9.89787,0,0,0
 20:59:06.694,23.6013,-3.24676,-10.102,0,0,0
 20:59:06.704,24.1088,-3.27473,-10.268,0,0,0
 20:59:06.714,24.608,-3.26845,-10.4124,0,0,0
 20:59:06.724,25.1134,-3.23081,-10.5661,0,0,0
 20:59:06.734,25.6649,-3.17209,-10.7525,0,0,0
 20:59:06.744,26.2895,-3.10735,-10.9727,0,0,0
 20:59:06.755,26.9712,-3.05566,-11.213,0,0,0
 20:59:06.765,27.6515,-3.01976,-11.4356,0,0,0
 20:59:06.774,28.279,-3.00174,-11.6109,0,0,0
 20:59:06.784,28.8669,-3.00116,-11.7299,0,0,0
 20:59:06.795,29.4356,-3.01815,-11.8169,0,0,0
 20:59:06.805,29.9905,-3.03832,-11.9158,0,0,0
 20:59:06.814,30.5542,-3.03622,-12.0529,0,0,0
 20:59:06.825,31.1403,-2.98912,-12.2119,0,0,0
 20:59:06.835,31.7028,-2.88897,-12.3692,0,0,0
 20:59:06.844,32.2301,-2.74394,-12.5077,0,0,0
 20:59:06.855,32.7141,-2.59265,-12.6474,0,0,0
 20:59:06.865,33.1547,-2.45744,-12.8298,0,0,0
 20:59:06.875,33.5859,-2.33934,-13.0677,0,0,0
 20:59:06.885,34.0396,-2.22577,-13.3395,0,0,0
 20:59:06.894,34.5621,-2.10782,-13.6205,0,0,0
 20:59:06.904,35.186,-1.97139,-13.8982,0,0,0
 20:59:06.914,35.8428,-1.81324,-14.1842,0,0,0
 20:59:06.924,36.4787,-1.62738,-14.4985,0,0,0
 20:59:06.934,37.1184,-1.38895,-14.8441,0,0,0
 20:59:06.944,37.7942,-1.07337,-15.1842,0,0,0
 20:59:06.954,38.4962,-0.682367,-15.4684,0,0,0
 20:59:06.964,39.1872,-0.230492,-15.669,0,0,0
 20:59:06.975,39.8279,0.262206,-15.7905,0,0,0
 20:59:06.985,40.3965,0.773817,-15.8517,0,0,0
 20:59:06.995,40.8891,1.24995,-15.8971,0,0,0
 20:59:07.005,41.387,1.63351,-15.9718,0,0,0
 20:59:07.015,41.9637,1.91297,-16.075,0,0,0
 20:59:07.025,42.6637,2.11571,-16.168,0,0,0
 20:59:07.034,43.4408,2.30448,-16.202,0,0,0
 20:59:07.044,44.2503,2.56041,-16.1302,0,0,0
 20:59:07.054,45.0846,2.93989,-15.9268,0,0,0
 20:59:07.064,45.9167,3.44783,-15.6204,0,0,0
 20:59:07.075,46.7237,4.05634,-15.2937,0,0,0
 20:59:07.085,47.5592,4.71204,-15.0192,0,0,0
 20:59:07.095,48.4287,5.34856,-14.8181,0,0,0
 20:59:07.105,49.3002,5.88014,-14.7016,0,0,0
 20:59:07.114,50.1601,6.23454,-14.672,0,0,0
 20:59:07.124,51.0097,6.40855,-14.6984,0,0,0
 20:59:07.134,51.8475,6.44813,-14.7535,0,0,0
 20:59:07.144,52.6689,6.43631,-14.8339,0,0,0
 20:59:07.154,53.4704,6.43504,-14.9591,0,0,0
 20:59:07.164,54.2586,6.48003,-15.1198,0,0,0
 20:59:07.175,54.9998,6.56874,-15.2799,0,0,0
 20:59:07.185,55.6951,6.67414,-15.4134,0,0,0
 20:59:07.195,56.381,6.7929,-15.4906,0,0,0
 20:59:07.205,57.0322,6.90452,-15.5295,0,0,0
 20:59:07.214,57.6219,6.96132,-15.6031,0,0,0
 20:59:07.224,58.1212,6.89218,-15.8162,0,0,0
 20:59:07.234,58.5637,6.64933,-16.2336,0,0,0
 20:59:07.245,59.0296,6.25992,-16.8085,0,0,0
 20:59:07.255,59.5284,5.79096,-17.4399,0,0,0
 20:59:07.265,60.0325,5.33108,-18.0249,0,0,0
 20:59:07.275,60.5105,4.92908,-18.5197,0,0,0
 20:59:07.285,60.9501,4.57196,-18.9453,0,0,0
 20:59:07.295,61.3303,4.21734,-19.354,0,0,0
 20:59:07.305,61.6302,3.8093,-19.8245,0,0,0
 20:59:07.315,61.8457,3.3029,-20.4256,0,0,0
 20:59:07.325,61.9926,2.65388,-21.1856,0,0,0
 20:59:07.335,62.1098,1.84998,-22.0713,0,0,0
 20:59:07.345,62.2013,0.936344,-22.9928,0,0,0
 20:59:07.354,62.2697,-0.0213,-23.8835,0,0,0
 20:59:07.364,62.3246,-0.949022,-24.705,0,0,0
 20:59:07.374,62.3951,-1.77471,-25.4276,0,0,0
 20:59:07.384,62.5152,-2.4502,-26.0322,0,0,0
 20:59:07.395,62.6214,-2.99861,-26.5506,0,0,0
 20:59:07.405,62.6598,-3.52303,-27.0553,0,0,0
 20:59:07.415,62.452,-4.18379,-27.4533,0,0,0
 20:59:07.425,62.1181,-4.84267,-27.6364,0,0,0
 20:59:07.434,61.6366,-5.40174,-27.5587,0,0,0
 20:59:07.444,61.033,-5.7977,-27.283,0,0,0
 20:59:07.455,60.4027,-5.99945,-26.9025,0,0,0
 20:59:07.465,59.8611,-5.96815,-26.444,0,0,0
 20:59:07.475,59.501,-5.68142,-25.8728,0,0,0
 20:59:07.485,59.1726,-5.15019,-25.1124,0,0,0
 20:59:07.495,58.7541,-4.4369,-24.1195,0,0,0
 20:59:07.505,58.1567,-3.64922,-22.9392,0,0,0
 20:59:07.515,57.4028,-2.91828,-21.717,0,0,0
 20:59:07.525,56.5161,-2.33417,-20.5777,0,0,0
 20:59:07.535,55.5381,-1.92054,-19.5929,0,0,0
 20:59:07.544,54.6255,-1.58438,-18.7245,0,0,0
 20:59:07.555,53.7675,-1.19813,-17.8799,0,0,0
 20:59:07.565,52.9656,-0.678281,-17.0106,0,0,0
 20:59:07.575,52.2808,0.0192488,-16.0941,0,0,0
 20:59:07.585,51.6996,0.842965,-15.1619,0,0,0
 20:59:07.595,51.1774,1.68568,-14.2887,0,0,0
 20:59:07.605,50.6715,2.49052,-13.5175,0,0,0
 20:59:07.615,50.2018,3.25895,-12.8468,0,0,0
 20:59:07.625,49.7769,3.99643,-12.2403,0,0,0
 20:59:07.635,49.3295,4.68129,-11.677,0,0,0
 20:59:07.645,48.876,5.29184,-11.1553,0,0,0
 20:59:07.655,48.3541,5.79859,-10.7141,0,0,0
 20:59:07.665,47.7735,6.01906,-10.5995,0,0,0
 20:59:07.675,47.2671,6.02576,-10.8207,0,0,0
 20:59:07.685,47.1092,5.83177,-11.2505,0,0,0
 20:59:07.695,47.1512,5.33389,-11.8664,0,0,0
 20:59:07.706,47.2395,4.60596,-12.5657,0,0,0
 20:59:07.715,47.2732,3.84184,-13.1757,0,0,0
 20:59:07.725,47.3191,3.21921,-13.5171,0,0,0
 20:59:07.735,47.3965,2.79917,-13.5304,0,0,0
 20:59:07.745,47.3713,2.62861,-13.2115,0,0,0
 20:59:07.755,47.1956,2.73623,-12.5832,0,0,0
 20:59:07.765,46.9061,3.10092,-11.719,0,0,0
 20:59:07.776,46.5687,3.71297,-10.6798,0,0,0
 20:59:07.786,46.2022,4.59158,-9.47323,0,0,0
 20:59:07.796,45.8498,5.76481,-8.07202,0,0,0
 20:59:07.806,45.5647,7.27489,-6.41643,0,0,0
 20:59:07.816,45.2282,9.12693,-4.4649,0,0,0
 20:59:07.826,44.5748,11.0844,-2.42688,0,0,0
 20:59:07.835,43.7196,12.8005,-0.624257,0,0,0
 20:59:07.845,42.8965,14.0525,0.751799,0,0,0
 20:59:07.855,42.1968,14.7858,1.71517,0,0,0
 20:59:07.865,41.5458,15.0507,2.39062,0,0,0
 20:59:07.876,40.8705,15.0037,2.98411,0,0,0
 20:59:07.885,40.1639,14.7671,3.59728,0,0,0
 20:59:07.895,39.4628,14.4382,4.19618,0,0,0
 20:59:07.905,38.8,14.1254,4.76392,0,0,0
 20:59:07.916,38.1659,13.912,5.34451,0,0,0
 20:59:07.926,37.5239,13.8433,6.01658,0,0,0
 20:59:07.936,36.7962,13.9252,6.85966,0,0,0
 20:59:07.945,35.8732,14.0948,7.87492,0,0,0
 20:59:07.955,34.7654,14.2593,8.96124,0,0,0
 20:59:07.965,33.5517,14.3663,9.9911,0,0,0
 20:59:07.976,32.3094,14.37,10.8473,0,0,0
 20:59:07.985,31.1242,14.2593,11.457,0,0,0
 20:59:07.995,29.9793,14.0688,11.8235,0,0,0
 20:59:08.005,28.8155,13.8667,12.0454,0,0,0
 20:59:08.016,27.6227,13.7355,12.2853,0,0,0
 20:59:08.026,26.4378,13.7352,12.693,0,0,0
 20:59:08.036,25.303,13.8635,13.3162,0,0,0
 20:59:08.046,24.1693,14.0485,14.0524,0,0,0
 20:59:08.055,23.0326,14.1803,14.7201,0,0,0
 20:59:08.066,21.9954,14.2002,15.1898,0,0,0
 20:59:08.075,21.071,14.1007,15.456,0,0,0
 20:59:08.085,20.1627,13.9055,15.6306,0,0,0
 20:59:08.095,19.1752,13.6455,15.8386,0,0,0
 20:59:08.105,18.0847,13.3745,16.1534,0,0,0
 20:59:08.116,16.9109,13.1489,16.5959,0,0,0
 20:59:08.126,15.6437,12.9867,17.1381,0,0,0
 20:59:08.136,14.3867,12.8576,17.7098,0,0,0
 20:59:08.146,13.2785,12.7476,18.2094,0,0,0
 20:59:08.155,12.336,12.6505,18.5683,0,0,0
 20:59:08.166,11.5146,12.5709,18.8079,0,0,0
 20:59:08.176,10.7232,12.5215,19.0229,0,0,0
 20:59:08.185,9.82207,12.5171,19.3293,0,0,0
 20:59:08.196,8.74567,12.5433,19.8068,0,0,0
 20:59:08.206,7.53996,12.5778,20.41,0,0,0
 20:59:08.216,6.35067,12.6296,20.9901,0,0,0
 20:59:08.226,5.25073,12.7127,21.4391,0,0,0
 20:59:08.236,4.27222,12.8247,21.7467,0,0,0
 20:59:08.246,3.38518,12.9658,21.9512,0,0,0
 20:59:08.255,2.53594,13.137,22.0994,0,0,0
 20:59:08.266,1.71135,13.3525,22.2438,0,0,0
 20:59:08.276,0.936393,13.6443,22.4308,0,0,0
 20:59:08.285,0.202764,14.0285,22.675,0,0,0
 20:59:08.295,-0.520805,14.4956,22.9692,0,0,0
 20:59:08.305,-1.29602,15.0109,23.3034,0,0,0
 20:59:08.316,-2.25426,15.5259,23.6794,0,0,0
 20:59:08.326,-3.55311,15.9719,24.0996,0,0,0
 20:59:08.336,-5.21857,16.2689,24.5423,0,0,0
 20:59:08.346,-6.95109,16.393,25.0118,0,0,0
 20:59:08.356,-8.51255,16.3894,25.4848,0,0,0
 20:59:08.366,-9.90767,16.3378,25.9173,0,0,0
 20:59:08.375,-11.1087,16.302,26.316,0,0,0
 20:59:08.386,-12.2124,16.3427,26.6697,0,0,0
 20:59:08.395,-13.3353,16.4931,27.0014,0,0,0
 20:59:08.406,-14.5725,16.7289,27.3507,0,0,0
 20:59:08.417,-16.0137,16.9973,27.7185,0,0,0
 20:59:08.427,-17.6503,17.2398,28.0705,0,0,0
 20:59:08.436,-19.408,17.4137,28.3779,0,0,0
 20:59:08.446,-21.1663,17.4966,28.6056,0,0,0
 20:59:08.456,-22.8032,17.4718,28.7809,0,0,0
 20:59:08.466,-24.2513,17.3512,28.9542,0,0,0
 20:59:08.476,-25.561,17.1797,29.1208,0,0,0
 20:59:08.486,-26.7187,16.9842,29.3042,0,0,0
 20:59:08.496,-27.7282,16.7827,29.5268,0,0,0
 20:59:08.506,-28.6208,16.5817,29.7957,0,0,0
 20:59:08.516,-29.471,16.3786,30.0756,0,0,0
 20:59:08.526,-30.325,16.1705,30.3277,0,0,0
 20:59:08.536,-31.1588,15.9401,30.5549,0,0,0
 20:59:08.546,-31.9436,15.6655,30.776,0,0,0
 20:59:08.556,-32.64,15.3213,31.0162,0,0,0
 20:59:08.566,-33.321,14.9108,31.2447,0,0,0
 20:59:08.576,-33.8918,14.4413,31.486,0,0,0
 20:59:08.586,-34.2576,13.9418,31.7569,0,0,0
 20:59:08.596,-34.5363,13.4967,31.9963,0,0,0
 20:59:08.607,-34.8241,13.1536,32.1707,0,0,0
 20:59:08.617,-35.121,12.915,32.2972,0,0,0
 20:59:08.626,-35.4707,12.7634,32.4037,0,0,0
 20:59:08.636,-35.8925,12.6315,32.5555,0,0,0
 20:59:08.646,-36.3521,12.4598,32.7816,0,0,0
 20:59:08.656,-36.769,12.2046,33.0635,0,0,0
 20:59:08.666,-37.0847,11.8978,33.3285,0,0,0
 20:59:08.677,-37.2443,11.5934,33.5032,0,0,0
 20:59:08.686,-37.2101,11.3234,33.5555,0,0,0
 20:59:08.696,-36.9842,11.0896,33.5033,0,0,0
 20:59:08.706,-36.6924,10.8739,33.3931,0,0,0
 20:59:08.716,-36.4794,10.6353,33.3042,0,0,0
 20:59:08.727,-36.3588,10.3565,33.3015,0,0,0
 20:59:08.737,-36.3259,10.0753,33.383,0,0,0
 20:59:08.746,-36.329,9.84548,33.5201,0,0,0
 20:59:08.757,-36.2939,9.69821,33.6791,0,0,0
 20:59:08.766,-36.1777,9.63674,33.8046,0,0,0
 20:59:08.776,-35.9142,9.67104,33.8357,0,0,0
 20:59:08.787,-35.4406,9.80032,33.7389,0,0,0
 20:59:08.797,-34.6889,10.03,33.5109,0,0,0
 20:59:08.807,-33.6234,10.3586,33.1798,0,0,0
 20:59:08.817,-32.2254,10.7704,32.7974,0,0,0
 20:59:08.827,-30.4709,11.2437,32.416,0,0,0
 20:59:08.836,-28.373,11.7609,32.064,0,0,0
 20:59:08.846,-25.9534,12.3027,31.7253,0,0,0
 20:59:08.857,-23.206,12.85,31.352,0,0,0
 20:59:08.867,-20.0981,13.3681,30.9167,0,0,0
 20:59:08.877,-16.6572,13.8264,30.4178,0,0,0
 20:59:08.887,-13.0129,14.2,29.8853,0,0,0
 20:59:08.897,-9.32362,14.4794,29.363,0,0,0
 20:59:08.907,-5.79926,14.6778,28.8535,0,0,0
 20:59:08.917,-2.56313,14.8227,28.3464,0,0,0
 20:59:08.927,0.367321,14.929,27.8435,0,0,0
 20:59:08.936,3.06172,14.9993,27.3622,0,0,0
 20:59:08.946,5.5769,15.0219,26.9118,0,0,0
 20:59:08.956,7.92769,14.9856,26.4869,0,0,0
 20:59:08.966,10.0906,14.8739,26.0692,0,0,0
 20:59:08.976,12.0566,14.6699,25.6379,0,0,0
 20:59:08.987,13.8577,14.3581,25.1837,0,0,0
 20:59:08.997,15.5203,13.9471,24.7011,0,0,0
 20:59:09.007,17.112,13.4707,24.1937,0,0,0
 20:59:09.017,18.7423,12.9715,23.6734,0,0,0
 20:59:09.027,20.4781,12.4835,23.1427,0,0,0
 20:59:09.037,22.315,12.0337,22.5983,0,0,0
 20:59:09.047,24.2129,11.6378,22.0384,0,0,0
 20:59:09.056,26.07,11.2877,21.4553,0,0,0
 20:59:09.067,27.7976,10.9632,20.8784,0,0,0
 20:59:09.077,29.4251,10.6247,20.3446,0,0,0
 20:59:09.087,31.0423,10.225,19.8459,0,0,0
 20:59:09.097,32.665,9.71534,19.3258,0,0,0
 20:59:09.106,34.2469,9.07796,18.7428,0,0,0
 20:59:09.117,35.7567,8.34847,18.1099,0,0,0
 20:59:09.128,37.1846,7.58679,17.46,0,0,0
 20:59:09.136,38.5087,6.87839,16.8123,0,0,0
 20:59:09.147,39.7224,6.32086,16.1907,0,0,0
 20:59:09.157,40.8128,5.9269,15.6232,0,0,0
 20:59:09.166,41.8011,5.59105,15.0857,0,0,0
 20:59:09.177,42.8399,5.19549,14.5248,0,0,0
 20:59:09.187,43.975,4.66935,13.886,0,0,0
 20:59:09.197,45.1077,4.03728,13.1887,0,0,0
 20:59:09.207,46.1381,3.36577,12.5066,0,0,0
 20:59:09.217,46.9949,2.6947,11.8958,0,0,0
 20:59:09.227,47.6969,2.04015,11.3665,0,0,0
 20:59:09.238,48.2672,1.43044,10.9135,0,0,0
 20:59:09.247,48.6901,0.921803,10.5507,0,0,0
 20:59:09.257,48.9336,0.555047,10.294,0,0,0
 20:59:09.267,48.9513,0.338927,10.1745,0,0,0
 20:59:09.277,48.6907,0.218701,10.2204,0,0,0
 20:59:09.287,48.1136,0.0970583,10.4144,0,0,0
 20:59:09.298,47.2526,-0.0982741,10.6858,0,0,0
 20:59:09.307,46.1606,-0.367224,10.9542,0,0,0
 20:59:09.317,44.9022,-0.669774,11.1706,0,0,0
 20:59:09.327,43.541,-0.985108,11.3267,0,0,0
 20:59:09.337,42.0979,-1.30583,11.4663,0,0,0
 20:59:09.347,40.6084,-1.6187,11.66,0,0,0
 20:59:09.357,39.2065,-1.94613,11.9695,0,0,0
 20:59:09.367,37.7647,-2.29094,12.3925,0,0,0
 20:59:09.377,36.2167,-2.62051,12.896,0,0,0
 20:59:09.387,34.5406,-2.95932,13.4408,0,0,0
 20:59:09.398,32.6746,-3.32862,14.0215,0,0,0
 20:59:09.407,30.5824,-3.75794,14.6264,0,0,0
 20:59:09.417,28.3527,-4.26925,15.2007,0,0,0
 20:59:09.427,26.1256,-4.82523,15.679,0,0,0
 20:59:09.437,24.0515,-5.38274,16.0066,0,0,0
 20:59:09.447,22.1856,-5.82943,16.2065,0,0,0
 20:59:09.458,20.4744,-6.13931,16.3996,0,0,0
 20:59:09.467,18.8765,-6.37307,16.6639,0,0,0
 20:59:09.477,17.2353,-6.58092,17.0361,0,0,0
 20:59:09.488,15.4784,-6.80209,17.4881,0,0,0
 20:59:09.497,13.7097,-7.06037,17.9301,0,0,0
 20:59:09.507,11.914,-7.30045,18.3255,0,0,0
 20:59:09.517,10.0571,-7.54214,18.6981,0,0,0
 20:59:09.527,8.23683,-7.87513,19.0796,0,0,0
 20:59:09.537,6.59712,-8.33494,19.4411,0,0,0
 20:59:09.547,5.14027,-8.85666,19.7645,0,0,0
 20:59:09.557,3.83533,-9.33713,20.0859,0,0,0
 20:59:09.567,2.6102,-9.74975,20.4603,0,0,0
 20:59:09.578,1.39391,-10.1205,20.9295,0,0,0
 20:59:09.587,0.2096,-10.479,21.4962,0,0,0
 20:59:09.598,-0.900828,-10.832,22.1606,0,0,0
 20:59:09.608,-1.97022,-11.2183,22.9145,0,0,0
 20:59:09.617,-3.05625,-11.6824,23.73,0,0,0
 20:59:09.627,-4.12834,-12.2477,24.5529,0,0,0
 20:59:09.637,-5.15877,-12.8928,25.3227,0,0,0
 20:59:09.647,-6.07855,-13.5592,26.0053,0,0,0
 20:59:09.658,-6.99355,-14.1971,26.626,0,0,0
 20:59:09.668,-7.99276,-14.7874,27.2194,0,0,0
 20:59:09.677,-8.99578,-15.3776,27.8183,0,0,0
 20:59:09.688,-9.87459,-16.0027,28.4028,0,0,0
 20:59:09.698,-10.5866,-16.6392,28.9266,0,0,0
 20:59:09.708,-11.103,-17.221,29.3277,0,0,0
 20:59:09.718,-11.3536,-17.672,29.5212,0,0,0
 20:59:09.728,-11.2852,-17.9356,29.4527,0,0,0
 20:59:09.738,-10.8606,-17.9802,29.1332,0,0,0
 20:59:09.747,-10.0446,-17.8213,28.6263,0,0,0
 20:59:09.758,-8.84424,-17.5233,28.0231,0,0,0
 20:59:09.768,-7.32276,-17.1482,27.3888,0,0,0
 20:59:09.777,-5.55458,-16.7276,26.7442,0,0,0
 20:59:09.787,-3.63671,-16.2976,26.0967,0,0,0
 20:59:09.798,-1.60542,-15.8925,25.4224,0,0,0
 20:59:09.808,0.561546,-15.5219,24.6774,0,0,0
 20:59:09.818,2.86691,-15.1678,23.8269,0,0,0
 20:59:09.828,5.28436,-14.7731,22.8513,0,0,0
 20:59:09.838,7.75118,-14.2701,21.7608,0,0,0
 20:59:09.848,10.1883,-13.6159,20.5639,0,0,0
 20:59:09.857,12.5185,-12.7976,19.2595,0,0,0
 20:59:09.867,14.7776,-11.8156,17.9056,0,0,0
 20:59:09.877,17.0505,-10.6964,16.6236,0,0,0
 20:59:09.888,19.3879,-9.48472,15.5669,0,0,0
 20:59:09.898,21.7065,-8.22162,14.8423,0,0,0
 20:59:09.907,23.8171,-6.95818,14.4414,0,0,0
 20:59:09.918,25.5788,-5.74318,14.2571,0,0,0
 20:59:09.928,26.9026,-4.60841,14.1907,0,0,0
 20:59:09.938,27.7472,-3.58183,14.1596,0,0,0
 20:59:09.947,28.1362,-2.69486,14.0051,0,0,0
 20:59:09.958,28.2851,-1.9672,13.5914,0,0,0
 20:59:09.968,28.6438,-1.30342,13.0302,0,0,0
 20:59:09.977,29.4399,-0.544585,12.5651,0,0,0
 20:59:09.988,30.5839,0.395248,12.3329,0,0,0
 20:59:09.998,31.8172,1.54757,12.3591,0,0,0
 20:59:10.008,32.995,2.87135,12.5847,0,0,0
 20:59:10.018,34.0921,4.30359,12.9593,0,0,0
 20:59:10.028,35.0406,5.75694,13.4301,0,0,0
 20:59:10.038,35.7411,7.11031,13.8901,0,0,0
 20:59:10.049,36.1585,8.28103,14.2545,0,0,0
 20:59:10.058,36.3322,9.22262,14.485,0,0,0
 20:59:10.068,36.3939,9.98119,14.66,0,0,0
 20:59:10.078,36.5115,10.7148,14.9608,0,0,0
 20:59:10.088,36.6653,11.5949,15.4795,0,0,0
 20:59:10.098,36.7461,12.6505,16.1917,0,0,0
 20:59:10.108,36.7438,13.8348,17.2008,0,0,0
 20:59:10.118,36.664,15.0176,18.5957,0,0,0
 20:59:10.128,36.4231,15.9388,20.2771,0,0,0
 20:59:10.138,35.943,16.3348,22.0082,0,0,0
 20:59:10.148,35.2191,15.9812,23.5062,0,0,0
 20:59:10.159,34.0154,14.6959,24.5353,0,0,0
 20:59:10.168,33.0896,12.9696,25.3471,0,0,0
 20:59:10.179,32.7776,11.0733,25.9106,0,0,0
 20:59:10.188,32.6899,9.21459,26.1268,0,0,0
 20:59:10.198,32.6605,7.71153,26.1279,0,0,0
 20:59:10.209,32.5347,6.7505,26.0762,0,0,0
 20:59:10.218,32.3155,6.37251,26.1016,0,0,0
 20:59:10.228,32.1199,6.54734,26.2209,0,0,0
 20:59:10.238,31.9995,7.19105,26.3723,0,0,0
 20:59:10.248,31.9925,8.16668,26.4891,0,0,0
 20:59:10.258,32.1448,9.30098,26.5163,0,0,0
 20:59:10.269,32.4888,10.4697,26.4195,0,0,0
 20:59:10.278,32.9737,11.6209,26.2068,0,0,0
 20:59:10.288,33.5539,12.7211,25.8996,0,0,0
 20:59:10.298,34.2554,13.7961,25.5665,0,0,0
 20:59:10.308,35.0496,14.9132,25.2794,0,0,0
 20:59:10.318,35.8534,16.0546,25.0539,0,0,0
 20:59:10.329,36.5795,17.1441,24.9169,0,0,0
 20:59:10.339,37.1104,18.0362,24.8867,0,0,0
 20:59:10.349,37.4183,18.5317,24.9391,0,0,0
 20:59:10.359,37.5908,18.5174,25.0572,0,0,0
 20:59:10.368,37.7668,18.0021,25.2933,0,0,0
 20:59:10.379,38.0552,16.9653,25.5978,0,0,0
 20:59:10.388,38.5265,15.3481,25.7852,0,0,0
 20:59:10.398,38.9197,13.2124,25.751,0,0,0
 20:59:10.408,38.9536,10.84,25.5562,0,0,0
 20:59:10.419,38.6689,8.41479,25.166,0,0,0
 20:59:10.429,38.1585,6.35972,24.7055,0,0,0
 20:59:10.438,37.5722,5.14825,24.3698,0,0,0
 20:59:10.448,37.0053,4.92941,24.2339,0,0,0
 20:59:10.458,36.5204,5.5081,24.2492,0,0,0
 20:59:10.468,36.1826,6.59086,24.3126,0,0,0
 20:59:10.478,36.0793,7.92758,24.3223,0,0,0
 20:59:10.488,36.307,9.30984,24.1969,0,0,0
 20:59:10.499,36.9554,10.6193,23.9494,0,0,0
 20:59:10.509,37.9849,11.8593,23.6938,0,0,0
 20:59:10.518,39.2356,13.03,23.5539,0,0,0
 20:59:10.529,40.4871,14.0941,23.654,0,0,0
 20:59:10.539,41.5128,14.8928,24.023,0,0,0
 20:59:10.549,42.1319,15.2167,24.5654,0,0,0
 20:59:10.558,42.3153,14.9545,25.1547,0,0,0
 20:59:10.568,42.2208,14.1179,25.6516,0,0,0
 20:59:10.578,41.8517,12.8286,25.9498,0,0,0
 20:59:10.588,41.3445,11.3404,26.0716,0,0,0
 20:59:10.598,40.8099,9.75933,25.9821,0,0,0
 20:59:10.608,40.2755,8.29579,25.7342,0,0,0
 20:59:10.619,39.7354,7.25524,25.4644,0,0,0
 20:59:10.628,39.1773,6.82035,25.2766,0,0,0
 20:59:10.638,38.635,6.9834,25.1815,0,0,0
 20:59:10.648,38.1646,7.65281,25.1478,0,0,0
 20:59:10.658,37.7836,8.7003,25.1465,0,0,0
 20:59:10.669,37.5703,9.9495,25.1506,0,0,0
 20:59:10.678,37.5679,11.2629,25.176,0,0,0
 20:59:10.688,37.636,12.5387,25.2605,0,0,0
 20:59:10.698,37.5971,13.7066,25.4804,0,0,0
 20:59:10.708,37.2863,14.6541,25.8304,0,0,0
 20:59:10.719,36.6169,15.2363,26.2113,0,0,0
 20:59:10.729,35.6721,15.3977,26.557,0,0,0
 20:59:10.739,34.665,15.1764,26.8519,0,0,0
 20:59:10.749,33.8016,14.6475,27.1032,0,0,0
 20:59:10.758,33.1297,13.8579,27.2789,0,0,0
 20:59:10.768,32.6789,12.8495,27.3322,0,0,0
 20:59:10.779,32.4451,11.7274,27.2689,0,0,0
 20:59:10.788,32.246,10.5883,27.1054,0,0,0
 20:59:10.798,31.9297,9.57639,26.9236,0,0,0
 20:59:10.809,31.445,8.85197,26.8383,0,0,0
 20:59:10.819,30.7025,8.44677,26.8313,0,0,0
 20:59:10.829,29.7569,8.32203,26.8253,0,0,0
 20:59:10.839,28.7357,8.4561,26.7769,0,0,0
 20:59:10.848,27.5955,8.82843,26.6517,0,0,0
 20:59:10.859,26.2555,9.41493,26.4073,0,0,0
 20:59:10.869,24.6055,10.1399,25.9734,0,0,0
 20:59:10.879,22.6518,10.9129,25.3477,0,0,0
 20:59:10.888,20.4121,11.6713,24.6362,0,0,0
 20:59:10.899,17.8924,12.3429,23.9293,0,0,0
 20:59:10.909,15.2697,12.9051,23.3165,0,0,0
 20:59:10.919,12.8391,13.3803,22.8804,0,0,0
 20:59:10.929,10.7717,13.7725,22.5959,0,0,0
 20:59:10.939,9.16225,14.1073,22.4052,0,0,0
 20:59:10.949,7.99491,14.4147,22.2708,0,0,0
 20:59:10.959,7.12372,14.7056,22.133,0,0,0
 20:59:10.969,6.25386,14.9831,21.8969,0,0,0
 20:59:10.979,5.13209,15.2322,21.5104,0,0,0
 20:59:10.989,3.59958,15.4564,20.9798,0,0,0
 20:59:10.999,1.71914,15.6755,20.3905,0,0,0
 20:59:11.009,-0.436423,15.907,19.818,0,0,0
 20:59:11.020,-2.75019,16.142,19.2897,0,0,0
 20:59:11.029,-5.0124,16.3598,18.8429,0,0,0
 20:59:11.039,-7.24261,16.5561,18.4502,0,0,0
 20:59:11.049,-9.47391,16.7347,18.1122,0,0,0
 20:59:11.059,-11.6579,16.8961,17.8188,0,0,0
 20:59:11.069,-13.7216,17.0341,17.536,0,0,0
 20:59:11.080,-15.5657,17.1359,17.2814,0,0,0
 20:59:11.089,-17.044,17.1759,17.1277,0,0,0
 20:59:11.099,-18.0556,17.1172,17.1146,0,0,0
 20:59:11.109,-18.5666,16.9802,17.1997,0,0,0
 20:59:11.119,-18.5623,16.8168,17.3054,0,0,0
 20:59:11.130,-18.0753,16.6778,17.3542,0,0,0
 20:59:11.139,-17.1956,16.5882,17.2994,0,0,0
 20:59:11.149,-15.8929,16.5317,17.1932,0,0,0
 20:59:11.159,-14.0301,16.493,17.1245,0,0,0
 20:59:11.169,-11.5003,16.4722,17.1486,0,0,0
 20:59:11.179,-8.27322,16.4643,17.3002,0,0,0
 20:59:11.189,-4.34929,16.4607,17.6103,0,0,0
 20:59:11.200,0.207464,16.4463,18.0767,0,0,0
 20:59:11.210,5.37743,16.3978,18.6671,0,0,0
 20:59:11.219,11.1412,16.2983,19.3067,0,0,0
 20:59:11.229,17.3729,16.145,19.8921,0,0,0
 20:59:11.239,23.8878,15.9121,20.3228,0,0,0
 20:59:11.249,30.4273,15.5382,20.4774,0,0,0
 20:59:11.259,36.6855,14.9082,20.2486,0,0,0
 20:59:11.269,42.3517,13.8953,19.5824,0,0,0
 20:59:11.279,47.1748,12.426,18.4828,0,0,0
 20:59:11.289,51.1878,10.5951,17.1116,0,0,0
 20:59:11.299,54.4673,8.61666,15.6948,0,0,0
 20:59:11.309,56.9879,6.74651,14.4301,0,0,0
 20:59:11.319,58.732,5.19368,13.4319,0,0,0
 20:59:11.330,59.7454,4.19103,12.8445,0,0,0
 20:59:11.339,60.1499,3.93326,12.761,0,0,0
 20:59:11.350,59.8706,4.41092,13.1655,0,0,0
 20:59:11.360,59.0394,5.44929,13.9858,0,0,0
 20:59:11.369,57.6834,6.77087,15.0393,0,0,0
 20:59:11.380,55.8187,8.18296,16.1772,0,0,0
 20:59:11.389,53.508,9.60322,17.3276,0,0,0
 20:59:11.399,50.7932,10.9867,18.4456,0,0,0
 20:59:11.410,47.6534,12.2858,19.4859,0,0,0
 20:59:11.419,44.023,13.4563,20.402,0,0,0
 20:59:11.430,39.8905,14.4715,21.1614,0,0,0
 20:59:11.439,35.3592,15.3023,21.7328,0,0,0
 20:59:11.449,30.6012,15.9072,22.0648,0,0,0
 20:59:11.459,25.8355,16.2864,22.13,0,0,0
 20:59:11.469,21.2807,16.484,21.9508,0,0,0
 20:59:11.479,17.1365,16.5429,21.6039,0,0,0
 20:59:11.490,13.6494,16.4964,21.1986,0,0,0
 20:59:11.500,11.0143,16.3811,20.8065,0,0,0
 20:59:11.510,9.38811,16.2457,20.4806,0,0,0
 20:59:11.519,9.09022,16.1401,20.324,0,0,0
 20:59:11.530,10.4459,16.1118,20.4589,0,0,0
 20:59:11.539,13.4092,16.0993,20.8916,0,0,0
 20:59:11.549,17.5187,16.0466,21.4594,0,0,0
 20:59:11.559,22.3157,15.9008,21.9321,0,0,0
 20:59:11.569,27.4258,15.5804,22.1098,0,0,0
 20:59:11.580,32.5676,15.0339,21.8669,0,0,0
 20:59:11.590,37.6445,14.2377,21.2205,0,0,0
 20:59:11.600,42.714,13.2416,20.3334,0,0,0
 20:59:11.609,47.8689,12.0947,19.349,0,0,0
 20:59:11.619,53.1199,10.7729,18.2755,0,0,0
 20:59:11.630,58.0997,9.08216,16.8944,0,0,0
 20:59:11.640,63.2249,6.99878,15.1798,0,0,0
 20:59:11.649,68.1425,4.14851,12.672,0,0,0
 20:59:11.659,72.2357,0.303777,9.05848,0,0,0
 20:59:11.670,75.2353,-4.26748,4.55535,0,0,0
 20:59:11.680,77.0784,-8.50591,0.222634,0,0,0
 20:59:11.689,77.86,-10.7109,-2.1919,0,0,0
 20:59:11.700,77.7385,-9.6766,-1.43155,0,0,0
 20:59:11.710,76.8053,-5.74495,2.20138,0,0,0
 20:59:11.720,75.0924,-0.493509,7.16117,0,0,0
 20:59:11.729,72.6488,4.58251,11.9922,0,0,0
 20:59:11.739,69.5135,8.72472,15.9734,0,0,0
 20:59:11.750,65.733,11.7833,18.9537,0,0,0
 20:59:11.759,61.3429,13.884,21.0201,0,0,0
 20:59:11.770,56.3835,15.2577,22.3686,0,0,0
 20:59:11.780,50.8772,16.1156,23.1899,0,0,0
 20:59:11.790,44.8945,16.6335,23.6182,0,0,0
 20:59:11.800,38.6082,16.9621,23.7379,0,0,0
 20:59:11.810,32.3159,17.2465,23.652,0,0,0
 20:59:11.820,26.3572,17.5759,23.4758,0,0,0
 20:59:11.829,21.1269,17.9845,23.3575,0,0,0
 20:59:11.840,16.7007,18.4097,23.3357,0,0,0
 20:59:11.850,12.9763,18.7908,23.3822,0,0,0
 20:59:11.860,9.94134,19.0847,23.4749,0,0,0
 20:59:11.870,7.71312,19.2403,23.5918,0,0,0
 20:59:11.880,6.50028,19.2503,23.7079,0,0,0
 20:59:11.890,6.44412,19.1525,23.7874,0,0,0
 20:59:11.900,7.56162,18.9863,23.8085,0,0,0
 20:59:11.910,9.75702,18.7999,23.7653,0,0,0
 20:59:11.920,12.8693,18.6065,23.6474,0,0,0
 20:59:11.930,16.7255,18.4009,23.4322,0,0,0
 20:59:11.940,21.1814,18.1677,23.1061,0,0,0
 20:59:11.950,26.1358,17.888,22.6547,0,0,0
 20:59:11.960,31.5004,17.5059,22.0471,0,0,0
 20:59:11.971,37.199,16.931,21.2492,0,0,0
 20:59:11.980,43.0947,16.0472,20.2011,0,0,0
 20:59:11.990,49.014,14.6873,18.7996,0,0,0
 20:59:12.000,54.6878,12.608,16.8451,0,0,0
 20:59:12.011,59.7909,9.55552,14.0832,0,0,0
 20:59:12.021,64.0655,5.40312,10.3687,0,0,0
 20:59:12.030,67.5266,0.469706,5.99128,0,0,0
 20:59:12.040,70.4238,-4.51921,1.59542,0,0,0
 20:59:12.050,72.3441,-8.40696,-1.77955,0,0,0
 20:59:12.060,73.3229,-10.1752,-3.20539,0,0,0
 20:59:12.071,73.4925,-9.66323,-2.55314,0,0,0
 20:59:12.081,72.9272,-7.36969,-0.294581,0,0,0
 20:59:12.090,71.68,-4.13986,2.78705,0,0,0
 20:59:12.100,69.8152,-0.653001,6.0633,0,0,0
 20:59:12.110,67.3842,2.6917,9.16598,0,0,0
 20:59:12.120,64.4038,5.66843,11.884,0,0,0
 20:59:12.130,60.8502,8.16554,14.1081,0,0,0
 20:59:12.140,56.6805,10.1232,15.7737,0,0,0
 20:59:12.150,51.9203,11.5765,16.8962,0,0,0
 20:59:12.161,46.6992,12.6,17.5234,0,0,0
 20:59:12.171,41.2386,13.3321,17.7719,0,0,0
 20:59:12.180,35.7734,13.9069,17.7769,0,0,0
 20:59:12.191,30.5073,14.4187,17.6641,0,0,0
 20:59:12.200,25.7033,14.9314,17.5646,0,0,0
 20:59:12.210,21.4594,15.4488,17.5546,0,0,0
 20:59:12.220,17.6571,15.9334,17.6445,0,0,0
 20:59:12.230,14.246,16.3304,17.815,0,0,0
 20:59:12.240,11.3439,16.6049,18.0273,0,0,0
 20:59:12.250,9.15014,16.7588,18.2342,0,0,0
 20:59:12.260,7.83207,16.8084,18.4001,0,0,0
 20:59:12.271,7.43008,16.7847,18.5011,0,0,0
 20:59:12.280,7.79971,16.736,18.5401,0,0,0
 20:59:12.291,8.73151,16.7036,18.5513,0,0,0
 20:59:12.300,10.0947,16.6894,18.5684,0,0,0
 20:59:12.310,11.8837,16.6278,18.5819,0,0,0
 20:59:12.320,14.1827,16.4576,18.5765,0,0,0
 20:59:12.330,17.11,16.1281,18.5313,0,0,0
 20:59:12.340,20.698,15.6647,18.3971,0,0,0
 20:59:12.350,24.9062,15.0875,18.1352,0,0,0
 20:59:12.361,29.6327,14.3831,17.7182,0,0,0
 20:59:12.370,34.7726,13.5246,17.1163,0,0,0
 20:59:12.381,40.2287,12.4856,16.3118,0,0,0
 20:59:12.390,45.8787,11.2088,15.2892,0,0,0
 20:59:12.400,51.4357,9.56107,13.9514,0,0,0
 20:59:12.411,56.3675,7.34405,12.1184,0,0,0
 20:59:12.421,60.3344,4.41513,9.67139,0,0,0
 20:59:12.430,64.3245,0.972337,6.8153,0,0,0
 20:59:12.441,68.0056,-3.02059,3.40529,0,0,0
 20:59:12.451,70.8376,-7.09144,-0.187439,0,0,0
 20:59:12.461,72.7993,-10.5127,-3.26821,0,0,0
 20:59:12.471,74.0708,-12.8874,-5.37504,0,0,0
 20:59:12.480,74.7884,-14.2448,-6.47653,0,0,0
 20:59:12.491,75.0483,-14.7147,-6.70121,0,0,0
 20:59:12.501,74.8842,-14.4515,-6.24608,0,0,0
 20:59:12.511,74.3258,-13.629,-5.32805,0,0,0
 20:59:12.521,73.4266,-12.3968,-4.11619,0,0,0
 20:59:12.531,72.2394,-10.759,-2.61356,0,0,0
 20:59:12.541,70.7811,-8.69248,-0.777197,0,0,0
 20:59:12.551,68.9839,-6.22267,1.39299,0,0,0
 20:59:12.561,66.7193,-3.40383,3.85984,0,0,0
 20:59:12.571,63.8444,-0.38038,6.49631,0,0,0
 20:59:12.581,60.2391,2.57349,9.05183,0,0,0
 20:59:12.591,55.8877,5.13072,11.2211,0,0,0
 20:59:12.601,50.9521,7.13163,12.8465,0,0,0
 20:59:12.611,45.6616,8.62263,13.9695,0,0,0
 20:59:12.621,40.1973,9.71352,14.7087,0,0,0
 20:59:12.631,34.7197,10.5091,15.2011,0,0,0
 20:59:12.641,29.3789,11.1014,15.5762,0,0,0
 20:59:12.651,24.4082,11.5516,15.932,0,0,0
 20:59:12.661,20.0273,11.8795,16.2976,0,0,0
 20:59:12.671,16.2089,12.0534,16.6086,0,0,0
 20:59:12.681,13.0029,12.0626,16.8094,0,0,0
 20:59:12.691,10.4818,11.9441,16.8677,0,0,0
 20:59:12.701,8.68199,11.759,16.7751,0,0,0
 20:59:12.711,7.59526,11.5585,16.5554,0,0,0
 20:59:12.721,7.15452,11.3826,16.2641,0,0,0
 20:59:12.731,7.28523,11.2558,15.9552,0,0,0
 20:59:12.741,7.96392,11.1719,15.6495,0,0,0
 20:59:12.751,9.09308,11.0918,15.3133,0,0,0
 20:59:12.761,10.4899,10.9724,14.9113,0,0,0
 20:59:12.771,12.0213,10.7811,14.4646,0,0,0
 20:59:12.781,13.6603,10.469,13.9621,0,0,0
 20:59:12.791,15.4529,9.99245,13.3409,0,0,0
 20:59:12.801,17.4722,9.32975,12.525,0,0,0
 20:59:12.811,19.7562,8.46483,11.508,0,0,0
 20:59:12.821,22.1978,7.40611,10.3646,0,0,0
 20:59:12.831,24.6243,6.19074,9.21872,0,0,0
 20:59:12.842,26.9275,4.8382,8.17769,0,0,0
 20:59:12.851,29.0218,3.39506,7.3125,0,0,0
 20:59:12.862,30.9206,1.93213,6.64718,0,0,0
 20:59:12.871,32.6699,0.47686,6.10142,0,0,0
 20:59:12.881,34.3182,-0.966476,5.55704,0,0,0
 20:59:12.891,35.8181,-2.39959,4.93353,0,0,0
 20:59:12.902,37.2771,-3.77193,4.23111,0,0,0
 20:59:12.911,38.7435,-5.07601,3.45298,0,0,0
 20:59:12.921,40.1675,-6.3214,2.61081,0,0,0
 20:59:12.931,41.6212,-7.51217,1.72742,0,0,0
 20:59:12.941,43.1138,-8.6673,0.811856,0,0,0
 20:59:12.951,44.6316,-9.82252,-0.152138,0,0,0
 20:59:12.961,46.1727,-11.0013,-1.15975,0,0,0
 20:59:12.972,47.6277,-12.1849,-2.15973,0,0,0
 20:59:12.981,48.8492,-13.3006,-3.05354,0,0,0
 20:59:12.991,49.8299,-14.2687,-3.74798,0,0,0
 20:59:13.001,50.586,-15.0089,-4.1663,0,0,0
 20:59:13.011,51.2596,-15.4914,-4.30321,0,0,0
 20:59:13.022,52.1337,-15.8093,-4.32127,0,0,0
 20:59:13.032,52.8511,-15.8412,-4.11905,0,0,0
 20:59:13.041,53.279,-15.5112,-3.64937,0,0,0
 20:59:13.051,53.5144,-14.9158,-3.05689,0,0,0
 20:59:13.061,53.646,-14.1343,-2.45061,0,0,0
 20:59:13.071,53.7841,-13.1727,-1.84809,0,0,0
 20:59:13.081,53.841,-11.9562,-1.1198,0,0,0
 20:59:13.091,53.7737,-10.4273,-0.154111,0,0,0
 20:59:13.101,53.5034,-8.48244,1.18313,0,0,0
 20:59:13.112,52.9371,-6.13131,2.91316,0,0,0
 20:59:13.122,52.0094,-3.54088,4.88573,0,0,0
 20:59:13.131,50.7432,-0.950202,6.87419,0,0,0
 20:59:13.141,49.3958,1.47428,8.76556,0,0,0
 20:59:13.152,48.1414,3.67536,10.5482,0,0,0
 20:59:13.161,46.9986,5.68848,12.2457,0,0,0
 20:59:13.171,45.9376,7.61243,13.9221,0,0,0
 20:59:13.181,44.9032,9.52636,15.6382,0,0,0
 20:59:13.191,43.841,11.4517,17.3996,0,0,0
 20:59:13.202,42.729,13.3703,19.1977,0,0,0
 20:59:13.211,41.4751,15.2367,21.0205,0,0,0
 20:59:13.221,39.9781,17.0047,22.8509,0,0,0
 20:59:13.232,38.2776,18.666,24.7142,0,0,0
 20:59:13.241,36.4647,20.2356,26.6693,0,0,0
 20:59:13.251,34.5956,21.6982,28.7295,0,0,0
 20:59:13.261,32.655,23.0168,30.8234,0,0,0
 20:59:13.272,30.6559,24.1743,32.8436,0,0,0
 20:59:13.282,28.6205,25.1864,34.7135,0,0,0
 20:59:13.292,26.5091,26.0317,36.3815,0,0,0
 20:59:13.302,24.3436,26.6911,37.8861,0,0,0
 20:59:13.311,22.1642,27.1586,39.3111,0,0,0
 20:59:13.322,20.1597,27.4649,40.7808,0,0,0
 20:59:13.331,18.3439,27.6532,42.3297,0,0,0
 20:59:13.342,16.5833,27.7355,43.8968,0,0,0
 20:59:13.351,14.7985,27.6958,45.4237,0,0,0
 20:59:13.362,12.9731,27.5312,46.8881,0,0,0
 20:59:13.371,11.0836,27.253,48.2723,0,0,0
 20:59:13.382,9.11096,26.8667,49.5663,0,0,0
 20:59:13.392,7.13897,26.3804,50.8134,0,0,0
 20:59:13.402,5.30449,25.7847,52.0872,0,0,0
 20:59:13.412,3.596,25.0857,53.4145,0,0,0
 20:59:13.422,1.94992,24.301,54.7808,0,0,0
 20:59:13.432,0.368682,23.4453,56.1664,0,0,0
 20:59:13.442,-1.12704,22.5406,57.5335,0,0,0
 20:59:13.452,-2.49919,21.6307,58.8391,0,0,0
 20:59:13.461,-3.75142,20.7648,60.0406,0,0,0
 20:59:13.472,-4.91569,19.9824,61.1078,0,0,0
 20:59:13.482,-5.99313,19.2893,62.0474,0,0,0
 20:59:13.492,-7.03892,18.6639,62.9068,0,0,0
 20:59:13.502,-8.11877,18.0579,63.7571,0,0,0
 20:59:13.512,-9.30101,17.4208,64.6674,0,0,0
 20:59:13.522,-10.5914,16.713,65.7304,0,0,0
 20:59:13.532,-11.8944,15.9022,67.0232,0,0,0
 20:59:13.542,-13.1287,14.9826,68.536,0,0,0
 20:59:13.552,-14.246,13.9883,70.1867,0,0,0
 20:59:13.562,-15.1996,12.9828,71.855,0,0,0
 20:59:13.572,-15.9704,12.0382,73.4321,0,0,0
 20:59:13.583,-16.4974,11.2082,74.8538,0,0,0
 20:59:13.592,-16.8556,10.518,76.076,0,0,0
 20:59:13.602,-17.1393,9.96895,77.1023,0,0,0
 20:59:13.613,-17.3985,9.56128,77.95,0,0,0
 20:59:13.622,-17.6199,9.27872,78.6847,0,0,0
 20:59:13.633,-17.7859,9.07423,79.4121,0,0,0
 20:59:13.643,-17.9322,8.88755,80.2093,0,0,0
 20:59:13.652,-18.1013,8.68944,81.1122,0,0,0
 20:59:13.662,-18.2654,8.46219,82.1192,0,0,0
 20:59:13.672,-18.3559,8.21195,83.1878,0,0,0
 20:59:13.682,-18.3601,7.97391,84.222,0,0,0
 20:59:13.692,-18.2747,7.79457,85.1318,0,0,0
 20:59:13.702,-18.1097,7.70362,85.8714,0,0,0
 20:59:13.712,-17.8894,7.71536,86.4341,0,0,0
 20:59:13.722,-17.6304,7.83467,86.8466,0,0,0
 20:59:13.732,-17.3909,8.05539,87.1284,0,0,0
 20:59:13.742,-17.2289,8.35393,87.2651,0,0,0
 20:59:13.752,-17.1343,8.69813,87.2199,0,0,0
 20:59:13.763,-17.0764,9.05712,86.9533,0,0,0
 20:59:13.773,-17.0324,9.4151,86.4337,0,0,0
 20:59:13.782,-16.9581,9.76388,85.6388,0,0,0
 20:59:13.792,-16.8079,10.1179,84.5357,0,0,0
 20:59:13.802,-16.5593,10.5276,83.0926,0,0,0
 20:59:13.813,-16.1772,11.0533,81.2944,0,0,0
 20:59:13.823,-15.6748,11.7199,79.1038,0,0,0
 20:59:13.832,-15.0292,12.447,76.5153,0,0,0
 20:59:13.842,-14.1948,13.1463,73.6122,0,0,0
 20:59:13.853,-13.1081,13.7605,70.5218,0,0,0
 20:59:13.863,-11.7967,14.2538,67.3185,0,0,0
 20:59:13.872,-10.2855,14.6119,64.0637,0,0,0
 20:59:13.882,-8.57552,14.8253,60.8242,0,0,0
 20:59:13.892,-6.6934,14.8838,57.6331,0,0,0
 20:59:13.902,-4.65432,14.7987,54.5126,0,0,0
 20:59:13.912,-2.51442,14.5984,51.5141,0,0,0
 20:59:13.923,-0.367128,14.2975,48.6987,0,0,0
 20:59:13.932,1.65931,13.9005,46.097,0,0,0
 20:59:13.943,3.49181,13.3999,43.7425,0,0,0
 20:59:13.953,5.1394,12.7907,41.6651,0,0,0
 20:59:13.962,6.61886,12.0857,39.8654,0,0,0
 20:59:13.972,7.92332,11.3087,38.3126,0,0,0
 20:59:13.982,9.07224,10.4877,36.9524,0,0,0
 20:59:13.992,10.1018,9.64817,35.7217,0,0,0
 20:59:14.002,11.0457,8.82328,34.5766,0,0,0
 20:59:14.012,11.9147,8.03938,33.4978,0,0,0
 20:59:14.022,12.7066,7.31079,32.4812,0,0,0
 20:59:14.032,13.3989,6.6525,31.5321,0,0,0
 20:59:14.042,13.9579,6.06793,30.6555,0,0,0
 20:59:14.053,14.372,5.54259,29.8601,0,0,0
 20:59:14.062,14.6837,5.06323,29.1675,0,0,0
 20:59:14.072,14.9438,4.63444,28.6176,0,0,0
 20:59:14.082,15.1702,4.27144,28.2456,0,0,0
 20:59:14.092,15.3309,4.00643,28.078,0,0,0
 20:59:14.102,15.3675,3.87804,28.1343,0,0,0
 20:59:14.113,15.2348,3.92481,28.4564,0,0,0
 20:59:14.122,14.9408,4.18079,29.1091,0,0,0
 20:59:14.132,14.4593,4.66859,30.1459,0,0,0
 20:59:14.142,13.7595,5.39046,31.5954,0,0,0
 20:59:14.153,12.8643,6.33262,33.4911,0,0,0
 20:59:14.163,11.8213,7.46109,35.8611,0,0,0
 20:59:14.173,10.6214,8.69834,38.6857,0,0,0
 20:59:14.183,9.17829,9.90959,41.8512,0,0,0
 20:59:14.193,7.43358,10.9735,45.1696,0,0,0
 20:59:14.202,5.45963,11.8146,48.4382,0,0,0
 20:59:14.212,3.40098,12.3763,51.5115,0,0,0
 20:59:14.223,1.40193,12.6327,54.3214,0,0,0
 20:59:14.233,-0.478359,12.5837,56.8416,0,0,0
 20:59:14.243,-2.17506,12.2699,59.0902,0,0,0
 20:59:14.253,-3.65281,11.7825,61.1465,0,0,0
 20:59:14.262,-4.84915,11.2095,63.1549,0,0,0
 20:59:14.272,-5.79687,10.5938,65.1981,0,0,0
 20:59:14.283,-6.61896,9.968,67.2815,0,0,0
 20:59:14.293,-7.41624,9.38339,69.3688,0,0,0
 20:59:14.303,-8.27893,8.87033,71.3756,0,0,0
 20:59:14.313,-9.17004,8.43546,73.2454,0,0,0
 20:59:14.323,-10.0574,8.06901,74.9341,0,0,0
 20:59:14.333,-10.9017,7.70805,76.4341,0,0,0
 20:59:14.343,-11.6191,7.28531,77.7812,0,0,0
 20:59:14.353,-12.2999,6.78483,78.9851,0,0,0
 20:59:14.363,-12.9688,6.23692,80.0476,0,0,0
 20:59:14.373,-13.6161,5.69038,81.0026,0,0,0
 20:59:14.383,-14.2884,5.16103,81.921,0,0,0
 20:59:14.393,-15.0386,4.62866,82.8958,0,0,0
 20:59:14.403,-15.842,4.07368,84.0098,0,0,0
 20:59:14.413,-16.6276,3.48974,85.2908,0,0,0
 20:59:14.423,-17.3575,2.87003,86.698,0,0,0
 20:59:14.433,-17.9441,2.23626,88.1686,0,0,0
 20:59:14.443,-18.3698,1.64167,89.6185,0,0,0
 20:59:14.453,-18.7173,1.14064,90.9645,0,0,0
 20:59:14.463,-18.9583,0.776267,92.1513,0,0,0
 20:59:14.473,-19.0584,0.57884,93.137,0,0,0
 20:59:14.484,-19.1603,0.564408,93.8813,0,0,0
 20:59:14.493,-19.3292,0.721163,94.3375,0,0,0
 20:59:14.504,-19.503,1.0109,94.4673,0,0,0
 20:59:14.513,-19.6209,1.401,94.2431,0,0,0
 20:59:14.523,-19.5973,1.88064,93.6466,0,0,0
 20:59:14.534,-19.4437,2.45061,92.6504,0,0,0
 20:59:14.543,-19.1702,3.10918,91.2097,0,0,0
 20:59:14.553,-18.7693,3.84319,89.2787,0,0,0
 20:59:14.563,-18.1735,4.62398,86.8488,0,0,0
 20:59:14.573,-17.2595,5.41973,83.9716,0,0,0
 20:59:14.583,-16.0404,6.202,80.7223,0,0,0
 20:59:14.593,-14.5833,6.95098,77.1953,0,0,0
 20:59:14.603,-13.0002,7.65846,73.4953,0,0,0
 20:59:14.613,-11.4126,8.32003,69.7169,0,0,0
 20:59:14.624,-9.82187,8.92644,65.9515,0,0,0
 20:59:14.633,-8.12628,9.47179,62.2867,0,0,0
 20:59:14.643,-6.13579,9.97094,58.8246,0,0,0
 20:59:14.653,-3.93564,10.4379,55.6156,0,0,0
 20:59:14.663,-1.79077,10.8608,52.6716,0,0,0
 20:59:14.674,0.18999,11.1886,50.0217,0,0,0
 20:59:14.684,2.02447,11.366,47.678,0,0,0
 20:59:14.694,3.75237,11.3613,45.5677,0,0,0
 20:59:14.704,5.422,11.1807,43.5246,0,0,0
 20:59:14.713,7.0691,10.8616,41.3644,0,0,0
 20:59:14.723,8.6735,10.4303,38.9324,0,0,0
 20:59:14.733,10.2638,9.90448,36.1537,0,0,0
 20:59:14.743,12.0433,9.30222,33.0939,0,0,0
 20:59:14.753,14.1665,8.64111,29.9483,0,0,0
 20:59:14.764,16.5414,7.91231,26.947,0,0,0
 20:59:14.773,19.0263,7.10384,24.2535,0,0,0
 20:59:14.784,21.4913,6.22585,21.8994,0,0,0
 20:59:14.794,23.7892,5.26905,19.7911,0,0,0
 20:59:14.803,25.7882,4.22357,17.7784,0,0,0
 20:59:14.814,27.3996,3.08685,15.7824,0,0,0
 20:59:14.823,28.5946,1.86853,13.8388,0,0,0
 20:59:14.833,29.2802,0.6248,12.0946,0,0,0
 20:59:14.843,29.3694,-0.535298,10.7191,0,0,0
 20:59:14.853,29.0283,-1.49353,9.83525,0,0,0
 20:59:14.864,28.7404,-2.14066,9.52797,0,0,0
 20:59:14.874,28.7606,-2.40079,9.78538,0,0,0
 20:59:14.883,28.977,-2.21613,10.5192,0,0,0
 20:59:14.894,29.1498,-1.54774,11.6519,0,0,0
 20:59:14.904,29.1206,-0.411392,13.1348,0,0,0
 20:59:14.913,28.8115,1.11239,14.8724,0,0,0
 20:59:14.923,28.1917,2.92405,16.7521,0,0,0
 20:59:14.934,27.2375,4.91452,18.6859,0,0,0
 20:59:14.943,25.9742,6.97315,20.6244,0,0,0
 20:59:14.954,24.4802,9.00109,22.545,0,0,0
 20:59:14.964,22.6433,10.8217,24.5405,0,0,0
 20:59:14.974,20.632,12.4223,26.6002,0,0,0
 20:59:14.984,18.4159,13.7715,28.8059,0,0,0
